"Time (s)","Acceleration x (m/s^2)","Acceleration y (m/s^2)","Acceleration z (m/s^2)"
2.388673100E-2,1.917000055E0,6.279000282E0,7.600950241E0
3.343781800E-2,2.092050076E0,6.439050198E0,7.816050529E0
5.343781800E-2,2.419950008E0,6.412950516E0,7.912050247E0
7.343781800E-2,2.500950098E0,6.517950535E0,7.680000305E0
9.343781800E-2,2.602050066E0,7.050000191E0,7.539000511E0
1.134378180E-1,2.187000036E0,6.979950428E0,7.503000259E0
1.334378180E-1,1.941000104E0,6.765000343E0,7.701000214E0
1.534378180E-1,1.657950044E0,6.601950169E0,8.146950722E0
1.734378180E-1,1.881000042E0,6.451050282E0,8.572950363E0
1.934378180E-1,1.789950132E0,6.564000130E0,8.359950066E0
2.134378180E-1,1.323000073E0,6.388950348E0,8.013000488E0
2.334378180E-1,8.470500112E-1,6.355050087E0,7.921950340E0
2.534378180E-1,5.470499992E-1,6.403050423E0,7.776000500E0
2.734378180E-1,5.209500194E-1,6.396000385E0,7.663050175E0
2.934378180E-1,2.070000172E-1,6.505950451E0,7.735050201E0
3.134378180E-1,5.160000324E-1,6.472950459E0,7.888050556E0
3.334378180E-1,6.379500031E-1,5.692050457E0,7.678050518E0
3.534378180E-1,1.333050013E0,5.488950253E0,7.278000355E0
3.734378180E-1,3.870000243E-1,6.745950222E0,7.134000301E0
3.934378180E-1,7.304999977E-2,8.083950043E0,7.527000427E0
4.134378180E-1,9.229500294E-1,7.279950142E0,7.768050194E0
4.334378180E-1,1.006950021E0,7.069050312E0,7.654050350E0
4.534378180E-1,9.690000415E-1,7.477950573E0,7.606050491E0
4.734378180E-1,9.690000415E-1,7.477950573E0,7.606050491E0
4.934378180E-1,6.430500150E-1,7.170000553E0,8.407950401E0
5.134378180E-1,-6.060000062E-1,7.998000145E0,8.194950104E0
5.334378180E-1,1.549500078E-1,6.031950474E0,6.460950375E0
5.534378180E-1,-6.990000606E-1,6.846000195E0,5.640000343E0
5.734378180E-1,-7.279500365E-1,6.633000374E0,5.058000088E0
5.934378180E-1,1.057050109E0,5.698950291E0,5.650050163E0
6.134378180E-1,1.057050109E0,5.698950291E0,5.650050163E0
6.334378180E-1,-2.710500062E-1,6.139950275E0,4.120050430E0
6.534378180E-1,-6.180000305E-1,5.647050381E0,3.535050154E0
6.734378180E-1,-3.229500055E-1,5.520000458E0,3.379950047E0
6.934378180E-1,1.395000100E0,5.292000294E0,2.926950216E0
7.134378180E-1,8.509500623E-1,4.756050110E0,2.455950022E0
7.334378180E-1,-3.139500022E-1,4.162050247E0,2.407950163E0
7.534378180E-1,-9.169500470E-1,3.303000212E0,3.226950169E0
7.734378180E-1,-3.379500210E-1,2.838000059E0,4.558050156E0
7.934378180E-1,7.200000286E-1,2.505000114E0,3.825000286E0
8.134378180E-1,2.439000130E0,1.354050040E0,1.809000134E0
8.334378180E-1,2.371950150E0,3.220500052E-1,1.882950068E0
8.534378180E-1,2.350050211E0,-2.250000089E-1,3.136050224E0
8.734378180E-1,3.294000149E0,-3.160500228E-1,2.809950113E0
8.934378180E-1,3.768000126E0,-1.690950036E0,3.720000267E0
9.134378180E-1,4.708950043E0,-1.983000040E0,7.527000427E0
9.334378180E-1,4.708950043E0,-1.983000040E0,7.527000427E0
9.534378180E-1,8.587050438E0,-2.929050207E0,7.500000477E0
9.734378180E-1,9.010950089E0,-2.907000065E0,8.149050713E0
9.934378180E-1,1.003305054E1,-3.807000160E0,1.084305096E1
1.013437818E0,1.077600098E1,-3.427050114E0,1.201395035E1
1.033437818E0,1.264995098E1,-4.830000401E0,1.089300060E1
1.053437818E0,1.411605072E1,-5.292000294E0,1.186305046E1
1.073437818E0,1.530600071E1,-6.175050259E0,1.504995060E1
1.093437818E0,1.469805050E1,-6.706950188E0,1.684500122E1
1.113437818E0,1.329405022E1,-6.208950520E0,1.818405151E1
1.133437818E0,1.257600021E1,-5.677050114E0,1.722600174E1
1.153437818E0,1.212600040E1,-5.149950027E0,1.557600117E1
1.173437818E0,1.118505096E1,-4.954050064E0,1.460895061E1
1.193437818E0,1.031400013E1,-4.498950005E0,1.424295044E1
1.213437818E0,1.001400089E1,-3.690000057E0,1.345500088E1
1.233437818E0,9.946950912E0,-2.871000051E0,1.219305038E1
1.253437818E0,9.532950401E0,-2.167050123E0,1.063005066E1
1.273437818E0,8.494050026E0,-1.341000080E0,9.160050392E0
1.293437818E0,7.050000191E0,-4.620000124E-1,8.089050293E0
1.313437818E0,7.050000191E0,-4.620000124E-1,8.089050293E0
1.333437818E0,5.113050461E0,8.460000157E-1,7.117050171E0
1.353437818E0,4.728000164E0,9.709500670E-1,7.246950150E0
1.373437818E0,4.195950031E0,8.320500255E-1,7.512000561E0
1.393437818E0,3.765000105E0,5.179499984E-1,7.777950287E0
1.413437818E0,3.717000246E0,2.500500083E-1,8.286000252E0
1.433437818E0,4.096050262E0,6.795000285E-2,8.653950691E0
1.453437818E0,4.644000053E0,1.810500026E-1,8.997000694E0
1.473437818E0,5.548950195E0,9.705000371E-2,8.860050201E0
1.493437818E0,6.724950314E0,-3.000000119E-1,7.996050358E0
1.513437818E0,7.621950150E0,-7.549500465E-1,7.864050388E0
1.533437818E0,8.143950462E0,-1.030050039E0,9.448950768E0
1.553437818E0,9.148050308E0,-1.465950012E0,1.130700016E1
1.573437818E0,1.034895039E1,-1.995000124E0,1.325895023E1
1.593437818E0,1.140795040E1,-2.232000113E0,1.497495079E1
1.613437818E0,1.287300014E1,-3.064950228E0,1.616505051E1
1.633437818E0,1.369695091E1,-3.678000212E0,1.648800087E1
1.653437818E0,1.475295067E1,-4.030050278E0,1.608405113E1
1.673437818E0,1.530300045E1,-4.186050415E0,1.537305069E1
1.693437818E0,1.594005108E1,-3.988950253E0,1.500600052E1
1.713437818E0,1.692900085E1,-3.931950092E0,1.504500103E1
1.733437818E0,1.714005089E1,-3.643950224E0,1.527000046E1
1.753437818E0,1.834605026E1,-3.367050171E0,1.589505100E1
1.773437818E0,1.834395027E1,-4.328999996E0,1.530795097E1
1.793437818E0,1.540605068E1,-5.208000183E0,1.325595093E1
1.813437818E0,1.242105103E1,-4.966050148E0,1.243500042E1
1.833437818E0,1.123995018E1,-5.518950462E0,1.200600052E1
1.853437818E0,9.592950821E0,-5.818950176E0,1.186305046E1
1.873437818E0,7.150950432E0,-5.947950363E0,1.116600037E1
1.893437818E0,5.443950176E0,-5.653050423E0,1.101300049E1
1.913437818E0,4.278000355E0,-5.823000431E0,1.159695053E1
1.933437818E0,2.877000093E0,-5.761050224E0,1.242105103E1
1.953437818E0,2.479050159E0,-5.185950279E0,1.186800098E1
1.973437818E0,2.748000145E0,-4.552050114E0,9.793950081E0
1.993437818E0,2.496000051E0,-3.424050093E0,8.973000526E0
2.013437818E0,2.282999992E0,-2.545950174E0,8.653950691E0
2.033437818E0,6.289500594E-1,-1.927950144E0,8.072999954E0
2.053437818E0,-8.719500303E-1,-1.114050031E0,8.470050812E0
2.073437818E0,1.260000020E-1,-3.190500140E-1,8.560950279E0
2.093437818E0,2.332950115E0,8.749500513E-1,7.249050140E0
2.113437818E0,3.727050066E0,2.029050112E0,4.942950249E0
2.133437818E0,3.645000219E0,3.109050035E0,2.793000221E0
2.153437818E0,2.791050196E0,3.571050167E0,1.303950071E0
2.173437818E0,2.791050196E0,3.571050167E0,1.303950071E0
2.193437818E0,8.470500112E-1,2.302050114E0,-3.048000097E0
2.213437818E0,1.158000112E0,1.882950068E0,-7.848000526E0
2.233437818E0,2.077050209E0,2.355000019E0,-1.444500065E1
2.253437818E0,4.480950356E0,3.190050125E0,-2.088105011E1
2.273437818E0,4.407000065E0,2.386050224E0,-2.676105118E1
2.293437818E0,1.198950052E0,3.348000050E0,-2.879595184E1
2.313437818E0,1.123950005E0,1.780050039E0,-2.362395096E1
2.333437818E0,4.399500191E-1,1.624050021E0,-1.553895092E1
2.353437818E0,-5.389500260E-1,1.696050048E0,-1.022400093E1
2.373437818E0,-1.321950078E0,2.407050133E0,-6.132000446E0
2.393437818E0,-8.520000577E-1,3.553950071E0,-5.205000401E0
2.413437818E0,-2.350500077E-1,4.639050007E0,-6.462000370E0
2.433437818E0,6.405000389E-2,5.224950314E0,-7.398000240E0
2.453437818E0,-2.590500116E-1,5.221050262E0,-6.963000298E0
2.473437818E0,-1.020000100E0,4.735050201E0,-5.313000202E0
2.493437818E0,-2.038050175E0,4.219950199E0,-4.015050411E0
2.513437818E0,-1.804950118E0,3.849000216E0,-1.927050114E0
2.533437818E0,-1.888950109E0,3.517950058E0,4.200000167E-1
2.553437818E0,-3.346950054E0,3.085050106E0,1.720950127E0
2.573437818E0,-4.189949989E0,2.757000208E0,3.255000114E0
2.593437818E0,-2.611950159E0,3.226050138E0,4.443000317E0
2.613437818E0,-2.940000057E0,2.956050158E0,4.681950092E0
2.633437818E0,-3.115050077E0,2.275950193E0,6.544950485E0
2.653437818E0,-1.911000133E0,2.335050106E0,8.659049988E0
2.673437818E0,-1.911000133E0,2.335050106E0,8.659049988E0
2.693437818E0,-1.911000133E0,2.335050106E0,8.659049988E0
2.713437818E0,4.470000267E-1,1.972050071E0,8.026950836E0
2.733437818E0,1.020000055E-1,1.291950107E0,1.017705059E1
2.753437818E0,-5.479500294E-1,8.370000124E-1,1.135005093E1
2.773437818E0,-7.695000619E-2,4.030500054E-1,9.871050835E0
2.793437818E0,1.318050027E0,-2.659500241E-1,7.942950249E0
2.813437818E0,1.675050020E0,-1.207050085E0,7.981950283E0
2.833437818E0,1.258050084E0,-1.750950098E0,9.559050560E0
2.853437818E0,1.242000103E0,-2.100000143E0,9.672000885E0
2.873437818E0,2.697000027E0,-2.598000050E0,1.151100063E1
2.893437818E0,3.358050108E0,-2.761050224E0,1.392705059E1
2.913437818E0,3.777000189E0,-2.533950090E0,1.508805084E1
2.933437818E0,4.036050320E0,-2.505000114E0,1.446300030E1
2.953437818E0,4.162950039E0,-2.269950151E0,1.326105022E1
2.973437818E0,5.095950127E0,-2.614950180E0,1.311495018E1
2.993437818E0,6.241050243E0,-2.682000160E0,1.426200104E1
3.013437818E0,5.455950260E0,-2.383050203E0,1.789605141E1
3.033437818E0,5.821950436E0,-2.658000231E0,1.607400131E1
3.053437818E0,4.822950363E0,-2.562000036E0,1.493205070E1
3.073437818E0,4.440000057E0,-2.002050161E0,1.299795055E1
3.093437818E0,5.854950428E0,-1.743000031E0,1.020795059E1
3.113437818E0,6.969000340E0,-1.522950053E0,7.954950333E0
3.133437818E0,7.486050129E0,-1.279050112E0,7.684950352E0
3.153437818E0,8.266050339E0,-1.320000052E0,8.118000031E0
3.173437818E0,8.812050819E0,-1.317000031E0,8.470050812E0
3.193437818E0,9.358050346E0,-1.332000017E0,8.626049995E0
3.213437818E0,9.907050133E0,-1.525950074E0,8.317049980E0
3.233437818E0,1.011000061E1,-1.770000100E0,7.812000275E0
3.253437818E0,1.038495064E1,-1.834050059E0,7.369050503E0
3.273437818E0,1.091505051E1,-2.292000055E0,6.997950554E0
3.293437818E0,1.116600037E1,-2.895000219E0,6.930000305E0
3.313437818E0,1.101300049E1,-3.232950211E0,7.315950394E0
3.333437818E0,1.094100094E1,-3.577050209E0,7.609950542E0
3.353437818E0,1.076100063E1,-3.865050077E0,7.630050182E0
3.373437818E0,9.832050323E0,-3.486000061E0,7.177050114E0
3.393437818E0,9.397050858E0,-2.988000154E0,6.507000446E0
3.413437818E0,9.466050148E0,-2.452050209E0,5.368950367E0
3.433437818E0,9.910950661E0,-1.477950096E0,3.187950134E0
3.453437818E0,9.910950661E0,-1.477950096E0,3.187950134E0
3.473437818E0,7.603050232E0,-3.550500274E-1,6.973950386E0
3.493437818E0,6.526050091E0,1.260000020E-1,1.409895039E1
3.513437818E0,7.941000462E0,-1.032000065E0,1.699394989E1
3.533437818E0,8.760000229E0,-1.356000066E0,1.140495014E1
3.553437818E0,6.066000462E0,-7.695000619E-2,3.727050066E0
3.573437818E0,4.744050026E0,6.469500065E-1,-9.289500713E-1
3.593437818E0,6.423000336E0,1.609500051E-1,-1.549050093E0
3.613437818E0,7.885950565E0,-7.950000465E-3,4.950000346E-1
3.633437818E0,8.491950035E0,9.000000358E-2,2.989050150E0
3.653437818E0,8.761950493E0,-8.860500455E-1,4.222949982E0
3.673437818E0,8.137050629E0,-1.972950101E0,5.223000050E0
3.693437818E0,7.120050430E0,-2.461950064E0,5.287950039E0
3.713437818E0,7.087950230E0,-1.224000096E0,5.695050240E0
3.733437818E0,9.258000374E0,-2.011950016E0,6.033000469E0
3.753437818E0,1.040700054E1,-2.091000080E0,6.643050194E0
3.773437818E0,1.150800037E1,-2.614950180E0,7.110000134E0
3.793437818E0,1.229805088E1,-2.953050137E0,7.761000156E0
3.813437818E0,1.305495071E1,-2.746950150E0,8.769000053E0
3.833437818E0,1.389300060E1,-3.060000181E0,9.322050095E0
3.853437818E0,1.274895096E1,-2.577000141E0,9.187950134E0
3.873437818E0,1.300005054E1,-2.464050055E0,9.559050560E0
3.893437818E0,1.344300079E1,-3.115050077E0,1.011195087E1
3.913437818E0,1.344300079E1,-3.115050077E0,1.011195087E1
3.933437818E0,1.222200012E1,-4.669050217E0,1.299000072E1
3.953437818E0,1.216905022E1,-5.385000229E0,1.420695114E1
3.973437818E0,1.281105042E1,-6.208950520E0,1.491300106E1
3.993437818E0,1.285905075E1,-6.241950512E0,1.474995041E1
4.013437818E0,1.317705059E1,-6.172950268E0,1.458495045E1
4.033437818E0,1.355295086E1,-6.319050312E0,1.407000065E1
4.053437818E0,1.323495102E1,-6.472050190E0,1.299795055E1
4.073437818E0,1.195605087E1,-6.373950481E0,1.212105083E1
4.093437818E0,9.886950493E0,-6.024000168E0,1.177200031E1
4.113437818E0,7.945950508E0,-5.634000301E0,1.156305027E1
4.133437818E0,6.709950447E0,-4.878000259E0,1.113705063E1
4.153437818E0,6.346050262E0,-4.474950314E0,1.072995090E1
4.173437818E0,5.986950397E0,-3.919950247E0,1.097400093E1
4.193437818E0,5.676000118E0,-3.405000210E0,1.113195038E1
4.213437818E0,4.821000099E0,-3.010050058E0,1.075200081E1
4.233437818E0,3.394050121E0,-2.931000233E0,1.091700077E1
4.253437818E0,2.206950188E0,-2.896950245E0,1.176705074E1
4.273437818E0,1.273050070E0,-2.875950098E0,1.203000069E1
4.293437818E0,1.378050089E0,-2.233950138E0,1.159695053E1
4.313437818E0,2.202000141E0,-1.762950063E0,9.502050400E0
4.333437818E0,2.649000168E0,-1.024950027E0,7.189050198E0
4.353437818E0,2.551050186E0,-3.400500119E-1,5.203950405E0
4.373437818E0,2.617950201E0,2.500500083E-1,3.604950190E0
4.393437818E0,3.174000263E0,8.290500641E-1,2.089050055E0
4.413437818E0,3.832050085E0,1.284000039E0,3.199500144E-1
4.433437818E0,3.768000126E0,1.323000073E0,-2.028000116E0
4.453437818E0,2.320950031E0,2.143949986E0,-3.939000130E0
4.473437818E0,1.693950057E0,2.266050100E0,-4.705049992E0
4.493437818E0,1.255950093E0,2.055000067E0,-5.167050362E0
4.513437818E0,1.150950074E0,1.906950116E0,-5.346000195E0
4.533437818E0,1.048050046E0,1.315050006E0,-6.682050228E0
4.553437818E0,4.440000355E-1,1.195950031E0,-9.522000313E0
4.573437818E0,1.573950052E0,1.393950105E0,-1.306800079E1
4.593437818E0,3.970950127E0,2.347050190E0,-1.739205170E1
4.613437818E0,5.602050304E0,4.569000244E0,-2.193600082E1
4.633437818E0,6.412950516E0,4.311000347E0,-2.536695099E1
4.653437818E0,5.118000031E0,4.612050056E0,-2.259000015E1
4.673437818E0,4.507050037E0,4.251000404E0,-1.738500023E1
4.693437818E0,2.821950197E0,3.595050097E0,-1.297200108E1
4.713437818E0,-1.185000062E0,4.213050365E0,-8.148000717E0
4.733437818E0,-1.686000109E0,4.023000240E0,-6.759000301E0
4.753437818E0,-2.137950182E0,4.107000351E0,-6.105000496E0
4.773437818E0,-2.454000235E0,4.339050293E0,-5.812950134E0
4.793437818E0,-2.338950157E0,4.702950001E0,-5.512050152E0
4.813437818E0,-2.494950056E0,4.774950027E0,-5.365950108E0
4.833437818E0,-2.907000065E0,4.372950077E0,-4.317000389E0
4.853437818E0,-3.307050228E0,4.039950371E0,-1.980000138E0
4.873437818E0,-3.709050179E0,3.982950211E0,-2.320500165E-1
4.893437818E0,-3.709050179E0,3.982950211E0,-2.320500165E-1
4.893437818E0,-4.092000008E0,3.832050085E0,-3.760500252E-1
4.933437818E0,-2.979000092E0,4.085999966E0,4.080000222E-1
4.953437818E0,-3.061950207E0,3.901050091E0,6.840000153E-1
4.973437818E0,-3.067050219E0,3.612000227E0,1.990950108E0
4.993437818E0,-2.938050032E0,3.765000105E0,2.875050068E0
5.013437818E0,-2.602950096E0,3.885000229E0,2.412000179E0
5.033437818E0,-2.145000219E0,3.631050110E0,3.291000128E0
5.053437818E0,-2.152050018E0,3.199950218E0,5.539050102E0
5.073437818E0,-2.373000145E0,3.295950174E0,7.309050560E0
5.093437818E0,-2.083050013E0,3.501000166E0,7.114950180E0
5.113437818E0,-1.864950061E0,3.235950232E0,6.841950417E0
5.133437818E0,-1.348050117E0,2.805000067E0,1.041405010E1
5.153437818E0,-1.243050098E0,2.769000053E0,7.936050415E0
5.173437818E0,-1.219050050E0,1.938000083E0,7.375950336E0
5.193437818E0,-1.650000095E0,1.155000091E0,1.105095005E1
5.213437818E0,-1.666050076E0,1.284000039E0,1.308405018E1
5.233437818E0,-6.349500418E-1,1.252950072E0,1.041405010E1
5.253437818E0,-2.010000050E-1,7.600500584E-1,9.772950172E0
5.273437818E0,-6.660000086E-1,2.190000117E-1,1.285200024E1
5.293437818E0,-2.869500220E-1,6.330000162E-1,1.468305111E1
5.313437818E0,1.105050087E0,6.979500055E-1,1.204695034E1
5.333437818E0,1.546050072E0,4.249500334E-1,1.099605083E1
5.353437818E0,1.219950080E0,9.195000678E-2,1.304805088E1
5.373437818E0,1.416000009E0,-5.295000225E-2,1.397895050E1
5.393437818E0,1.660950065E0,4.200000316E-2,1.216005039E1
5.413437818E0,2.046000004E0,1.879500151E-1,1.118805027E1
5.433437818E0,2.436000109E0,1.260000020E-1,1.199400043E1
5.453437818E0,2.992050171E0,-1.200000010E-2,1.243695068E1
5.473437818E0,3.492000103E0,-2.350500077E-1,1.183605099E1
5.493437818E0,3.355950117E0,-3.259500265E-1,1.156305027E1
5.513437818E0,3.298050165E0,-1.249500066E-1,1.178595066E1
5.533437818E0,4.363950253E0,-2.920500040E-1,1.193505096E1
5.553437818E0,4.804050446E0,-5.269500017E-1,1.161105061E1
5.573437818E0,4.756050110E0,-9.870000482E-1,1.108905029E1
5.593437818E0,4.756050110E0,-9.870000482E-1,1.108905029E1
5.613437818E0,5.025000095E0,-7.999500632E-1,1.012005043E1
5.633437818E0,5.749950409E0,-6.660000086E-1,9.346050262E0
5.653437818E0,6.540000439E0,4.459500313E-1,9.022950172E0
5.673437818E0,8.439000130E0,-2.370000184E-1,8.506050110E0
5.693437818E0,7.402050495E0,-1.200000048E0,8.604000092E0
5.713437818E0,6.091950417E0,-5.610000491E-1,8.866950035E0
5.733437818E0,6.091950417E0,-5.610000491E-1,8.866950035E0
5.753437818E0,8.653950691E0,-7.879500389E-1,8.098950386E0
5.773437818E0,8.355000496E0,-9.079500437E-1,7.756950378E0
5.793437818E0,8.335950851E0,-9.079500437E-1,7.936050415E0
5.813437818E0,8.785950661E0,-1.059000015E0,8.010000229E0
5.833437818E0,8.760000229E0,-1.141950011E0,7.957950592E0
5.853437818E0,8.719050407E0,-1.138050079E0,7.846950531E0
5.873437818E0,9.103950500E0,-1.023000002E0,7.845000267E0
5.893437818E0,9.322050095E0,-9.529500604E-1,7.480950356E0
5.913437818E0,9.069000244E0,-9.250500202E-1,6.885000229E0
5.933437818E0,8.716950417E0,-9.289500713E-1,6.625950336E0
5.953437818E0,8.560950279E0,-9.919500351E-1,6.631050110E0
5.973437818E0,8.427000046E0,-7.330500484E-1,6.507000446E0
5.993437818E0,8.368950844E0,-7.090500593E-1,6.832050323E0
6.013437818E0,8.298000336E0,-7.399500608E-1,7.066950321E0
6.033437818E0,7.906950474E0,-7.279500365E-1,7.150950432E0
6.053437818E0,7.906950474E0,-7.279500365E-1,7.150950432E0
6.073437818E0,6.787050247E0,-6.469500065E-1,6.993000507E0
6.093437818E0,6.424950123E0,-5.970000029E-1,7.270050526E0
6.113437818E0,6.016050339E0,-3.930000067E-1,7.960050583E0
6.133437818E0,6.195000172E0,-3.480000198E-1,8.323950768E0
6.153437818E0,7.324950218E0,-3.640500307E-1,8.049000740E0
6.173437818E0,8.317049980E0,-3.760500252E-1,7.366050243E0
6.193437818E0,8.784000397E0,-3.259500265E-1,6.892050266E0
6.213437818E0,8.745000839E0,-3.760500252E-1,6.526050091E0
6.233437818E0,8.973000526E0,-9.649500251E-1,6.267000198E0
6.253437818E0,8.412000656E0,-1.557000041E0,5.584950447E0
6.273437818E0,8.371950150E0,-1.078050017E0,6.765000343E0
6.293437818E0,9.069000244E0,-1.168950081E0,7.191000462E0
6.313437818E0,8.968050003E0,-1.150050044E0,6.717000484E0
6.333437818E0,8.532000542E0,-1.141950011E0,6.081000328E0
6.353437818E0,8.032050133E0,-1.264950037E0,5.992050171E0
6.373437818E0,7.776000500E0,-1.219050050E0,6.171000481E0
6.393437818E0,8.050950050E0,-1.240950108E0,6.091950417E0
6.413437818E0,8.572950363E0,-1.231050014E0,5.551050186E0
6.433437818E0,8.128050804E0,-1.276950002E0,5.877000332E0
6.453437818E0,7.651050568E0,-1.417950034E0,6.253050327E0
6.473437818E0,7.651050568E0,-1.417950034E0,6.253050327E0
6.493437818E0,7.869000435E0,-1.312050104E0,7.486050129E0
6.513437818E0,8.298000336E0,-1.051050067E0,8.070000648E0
6.533437818E0,8.508000374E0,-8.839500546E-1,8.281050682E0
6.553437818E0,8.223000526E0,-6.850500107E-1,8.748000145E0
6.573437818E0,8.008049965E0,-5.560500026E-1,9.397050858E0
6.593437818E0,8.056050301E0,-5.920500159E-1,9.958950043E0
6.613437818E0,7.716000557E0,-8.599500656E-1,1.054605007E1
6.633437818E0,6.874950409E0,-7.519500256E-1,1.104105091E1
6.653437818E0,6.825000286E0,-6.060000062E-1,1.155900097E1
6.673437818E0,7.153050423E0,-2.899500132E-1,1.231500053E1
6.693437818E0,7.399950504E0,-2.639999986E-1,1.284405041E1
6.713437818E0,7.452000141E0,-6.640500426E-1,1.265805054E1
6.733437818E0,7.074000359E0,-1.095000029E0,1.249500084E1
6.753437818E0,6.403950214E0,-1.231050014E0,1.276305103E1
6.773437818E0,6.018000126E0,-1.663950086E0,1.349100018E1
6.793437818E0,5.817000389E0,-2.062050104E0,1.371600056E1
6.813437818E0,5.719050407E0,-2.260950089E0,1.405605030E1
6.833437818E0,4.582050323E0,-3.292950153E0,1.415895081E1
6.853437818E0,3.586050272E0,-3.652050257E0,1.433805084E1
6.873437818E0,3.313050270E0,-3.802950144E0,1.554000092E1
6.893437818E0,3.313050270E0,-3.802950144E0,1.554000092E1
6.913437818E0,3.466050148E0,-4.480050087E0,1.611300087E1
6.933437818E0,2.608950138E0,-4.726950169E0,1.512900066E1
6.953437818E0,1.801950097E0,-4.542000294E0,1.417800045E1
6.973437818E0,1.693950057E0,-4.223999977E0,1.327095032E1
6.993437818E0,1.876050115E0,-3.855000257E0,1.294305038E1
7.013437818E0,1.777950048E0,-3.373950243E0,1.264305019E1
7.033437818E0,1.315950036E0,-2.847000122E0,1.165905094E1
7.053437818E0,8.200500607E-1,-2.422950029E0,1.051200008E1
7.073437818E0,2.460000068E-1,-1.758000135E0,1.011705017E1
7.093437818E0,6.000000052E-3,-1.305000067E0,9.837000847E0
7.113437818E0,1.090500057E-1,-1.012950063E0,9.190950394E0
7.133437818E0,-2.250000089E-1,-6.229500175E-1,8.237999916E0
7.153437818E0,-7.420500517E-1,-8.700000495E-2,7.354050159E0
7.173437818E0,-2.730000019E-1,3.000000119E-1,5.700000286E0
7.193437818E0,5.895000324E-2,8.629500270E-1,4.266000271E0
7.213437818E0,1.800000109E-2,1.308000088E0,3.688950062E0
7.233437818E0,-5.295000225E-2,1.549950123E0,3.052050114E0
7.253437818E0,1.090950012E0,1.774950027E0,1.680000067E0
7.273437818E0,2.275950193E0,1.890000105E0,2.359500080E-1
7.293437818E0,2.275950193E0,1.890000105E0,2.359500080E-1
7.313437818E0,2.250000000E0,2.017050028E0,-5.085000038E0
7.333437818E0,1.086000085E0,1.234050035E0,-7.246950150E0
7.353437818E0,-6.870000362E-1,9.705000371E-2,-7.705050468E0
7.373437818E0,-1.144050002E0,-4.960500300E-1,-7.420050144E0
7.393437818E0,-1.480500102E-1,-4.099500179E-1,-8.974050522E0
7.413437818E0,1.357050061E0,5.470499992E-1,-1.343400097E1
7.433437818E0,3.478050232E0,2.299950123E0,-1.967400169E1
7.453437818E0,6.736050129E0,5.560950279E0,-2.547495079E1
7.473437818E0,8.851050377E0,5.503050327E0,-2.818800163E1
7.493437818E0,7.471950531E0,6.669000149E0,-2.672700119E1
7.513437818E0,7.314000130E0,5.860050201E0,-2.177100182E1
7.533437818E0,5.875050068E0,4.948050022E0,-1.619700050E1
7.553437818E0,3.997050285E0,4.620000362E0,-1.181595039E1
7.573437818E0,2.269050121E0,4.099950314E0,-9.366000175E0
7.593437818E0,7.030500174E-1,3.193050146E0,-7.963050365E0
7.613437818E0,-5.869500041E-1,2.137050152E0,-6.364050388E0
7.633437818E0,-1.875000119E0,1.311000109E0,-4.780950069E0
7.653437818E0,-2.176050186E0,9.300000668E-1,-3.139050245E0
7.673437818E0,-3.208050251E0,1.432950020E0,1.407000065E0
7.693437818E0,-3.208050251E0,1.432950020E0,1.407000065E0
7.713437818E0,-3.541050196E0,2.331000090E0,1.588950038E0
7.733437818E0,-3.244050264E0,2.773950100E0,3.523050070E0
7.753437818E0,-4.293000221E0,2.752050161E0,5.680950165E0
7.773437818E0,-4.813050270E0,2.938950062E0,6.736950397E0
7.793437818E0,-4.197000027E0,3.054000139E0,6.981000423E0
7.813437818E0,-4.219050407E0,3.030000210E0,8.608950615E0
7.833437818E0,-4.444050312E0,3.231000185E0,9.922950745E0
7.853437818E0,-4.258950233E0,3.352950096E0,8.334000587E0
7.873437818E0,-3.454950094E0,3.340950251E0,7.062000275E0
7.893437818E0,-2.682000160E0,2.944050074E0,7.857000351E0
7.913437818E0,-2.394000053E0,2.311050177E0,8.793000221E0
7.933437818E0,-2.773050070E0,1.617000103E0,9.484950066E0
7.953437818E0,-2.959050179E0,1.284000039E0,1.041705036E1
7.973437818E0,-2.382000208E0,1.375050068E0,9.157050133E0
7.993437818E0,-1.189950109E0,1.213050008E0,7.600950241E0
8.013437818E0,-4.069500268E-1,8.959500194E-1,8.322000504E0
8.033437818E0,-2.160000056E-1,5.920500159E-1,1.038105011E1
8.053437818E0,-3.105000220E-2,2.070000172E-1,1.062495041E1
8.073437818E0,-1.099500060E-1,3.649500310E-1,1.055805016E1
8.093437818E0,2.611050129E0,4.200000167E-1,9.376950264E0
8.113437818E0,3.088050127E0,-6.705000252E-2,9.817950249E0
8.133437818E0,2.202000141E0,-1.900500059E-1,1.178595066E1
8.153437818E0,1.888050079E0,1.369500011E-1,1.225305080E1
8.173437818E0,3.205050230E0,2.359500080E-1,1.117605019E1
8.193437818E0,4.606050014E0,-9.105000645E-2,1.099800014E1
8.213437818E0,4.084050179E0,-4.270500243E-1,1.237995052E1
8.233437818E0,2.590050220E0,1.780500114E-1,1.404405022E1
8.253437818E0,3.874950171E0,7.669500113E-1,1.298100090E1
8.273437818E0,4.800000191E0,5.539500117E-1,1.074495029E1
8.293437818E0,6.316950321E0,5.250000358E-1,1.076895046E1
8.313437818E0,6.640950203E0,-4.305000231E-2,1.182000065E1
8.333437818E0,5.743050098E0,-9.390000701E-1,1.275600052E1
8.353437818E0,4.561950207E0,-1.192950010E0,1.276095104E1
8.373437818E0,4.797000408E0,-1.153950095E0,1.249995041E1
8.393437818E0,5.836050510E0,-1.255050063E0,1.243995094E1
8.413437818E0,6.142950058E0,-1.255050063E0,1.209705067E1
8.433437818E0,5.980050087E0,-1.047000051E0,1.156095028E1
8.453437818E0,6.042000294E0,-7.159500122E-1,1.097895050E1
8.473437818E0,6.115950108E0,-3.520500064E-1,1.091205025E1
8.493437818E0,6.193050385E0,-1.780500114E-1,1.085505009E1
8.513437818E0,6.412950516E0,-3.070500195E-1,1.050495052E1
8.533437818E0,6.351000309E0,-8.220000267E-1,9.301050186E0
8.553437818E0,6.183000088E0,-1.126049995E0,9.655050278E0
8.573437818E0,6.004050255E0,-1.308000088E0,9.970950127E0
8.593437818E0,6.166950226E0,-1.308000088E0,9.447000504E0
8.613437818E0,6.370050430E0,-1.171050072E0,8.860050201E0
8.633437818E0,6.583050251E0,-1.060950041E0,8.602050781E0
8.653437818E0,6.868050098E0,-8.380500674E-1,8.616000175E0
8.673437818E0,7.230000496E0,-7.189500332E-1,8.013000488E0
8.693437818E0,7.492950439E0,-7.519500256E-1,7.069050312E0
8.713437818E0,7.729950428E0,-8.599500656E-1,6.516000271E0
8.733437818E0,7.918950558E0,-1.165950060E0,6.508950233E0
8.753437818E0,8.029050827E0,-1.461000085E0,6.813000202E0
8.773437818E0,7.785000324E0,-1.636050105E0,7.186950207E0
8.793437818E0,7.387950420E0,-1.638000131E0,7.459950447E0
8.813437818E0,7.558050156E0,-1.506000042E0,7.396950245E0
8.833437818E0,7.624950409E0,-1.426950097E0,6.922950268E0
8.853437818E0,7.555050373E0,-1.336050034E0,6.229050159E0
8.873437818E0,7.701000214E0,-1.162050009E0,5.593950272E0
8.893437818E0,7.735050201E0,-1.071000099E0,4.845000267E0
8.913437818E0,7.528950214E0,-1.047000051E0,4.246050358E0
8.933437818E0,7.740000248E0,-1.171050072E0,4.267950058E0
8.953437818E0,7.795050144E0,-1.399050117E0,5.190000057E0
8.973437818E0,7.603050232E0,-1.447050095E0,5.377050400E0
8.993437818E0,7.459950447E0,-1.545000076E0,5.235000134E0
9.013437818E0,6.997050285E0,-1.633050084E0,4.965000153E0
9.033437818E0,6.451950073E0,-1.534950018E0,4.752000332E0
9.053437818E0,6.183000088E0,-1.344000101E0,4.492950439E0
9.073437818E0,6.295950413E0,-1.281000018E0,4.831050396E0
9.093437818E0,6.637950420E0,-1.198050022E0,5.986950397E0
9.113437818E0,6.906000137E0,-1.255050063E0,6.468000412E0
9.133437818E0,6.765000343E0,-1.474950075E0,6.531000137E0
9.153437818E0,6.748050213E0,-1.863000035E0,6.400950432E0
9.173437818E0,6.985950470E0,-1.935000062E0,6.600000381E0
9.193437818E0,7.150950432E0,-1.447050095E0,6.853950500E0
9.213437818E0,7.498050213E0,-9.010500312E-1,6.847050190E0
9.233437818E0,8.416950226E0,-1.078050017E0,6.925950527E0
9.253437818E0,8.544000626E0,-1.875000119E0,7.191000462E0
9.273437818E0,7.953000546E0,-2.301000118E0,7.570050240E0
9.293437818E0,8.221050262E0,-2.364000082E0,7.591050148E0
9.313437818E0,9.238950729E0,-2.143050194E0,7.438050270E0
9.333437818E0,1.025595093E1,-2.107050180E0,7.488000393E0
9.353437818E0,1.058895016E1,-2.335050106E0,7.371000290E0
9.373437818E0,1.031595039E1,-1.935000062E0,7.474050522E0
9.393437818E0,1.096200085E1,-1.465950012E0,7.716000557E0
9.413437818E0,1.127100086E1,-1.341000080E0,7.809000492E0
9.433437818E0,1.091700077E1,-1.378950119E0,7.491000175E0
9.453437818E0,1.045005035E1,-1.486950040E0,7.399950504E0
9.473437818E0,1.014405060E1,-1.497000098E0,7.693950176E0
9.493437818E0,9.957000732E0,-1.441950083E0,8.155950546E0
9.513437818E0,9.622050285E0,-1.396050096E0,8.500950813E0
9.533437818E0,9.286050797E0,-1.381950021E0,8.728950500E0
9.553437818E0,9.397050858E0,-1.356000066E0,8.953950882E0
9.573437818E0,9.400950432E0,-1.369950056E0,9.004050255E0
9.593437818E0,9.102000237E0,-1.255050063E0,9.246000290E0
9.613437818E0,8.911050797E0,-7.669500113E-1,9.717000008E0
9.633437818E0,9.543000221E0,-5.410500169E-1,1.035705090E1
9.653437818E0,9.745950699E0,-4.050000310E-1,1.098900032E1
9.673437818E0,9.526050568E0,-4.309500158E-1,1.159500027E1
9.693437818E0,9.199950218E0,-3.619500101E-1,1.224600029E1
9.713437818E0,9.138000488E0,-6.210000515E-1,1.313205051E1
9.733437818E0,8.689949989E0,-9.220500588E-1,1.381905079E1
9.753437818E0,8.107950211E0,-1.245000005E0,1.423305035E1
9.773437818E0,7.423950195E0,-1.285950065E0,1.441305065E1
9.793437818E0,6.753000259E0,-1.357950091E0,1.379505062E1
9.813437818E0,5.925000191E0,-1.699950099E0,1.312005043E1
9.833437818E0,4.957950115E0,-2.140950203E0,1.259100056E1
9.853437818E0,3.631050110E0,-2.260950089E0,1.312905025E1
9.873437818E0,2.206950188E0,-2.078999996E0,1.420395088E1
9.893437818E0,3.037050247E0,-2.164950132E0,1.352700043E1
9.913437818E0,3.772050142E0,-2.184000015E0,1.019895077E1
9.933437818E0,2.104050159E0,-1.534950018E0,8.677950859E0
9.953437818E0,7.650000453E-1,-1.204950094E0,9.475950241E0
9.973437818E0,2.959500253E-1,-1.075049996E0,1.036395073E1
9.993437818E0,-7.905000448E-2,-8.790000677E-1,1.003095055E1
1.001343782E1,-4.305000231E-2,-5.509500504E-1,8.833950043E0
1.003343782E1,3.049500287E-1,-2.779500186E-1,7.345050335E0
1.005343782E1,-6.799500585E-1,-7.005000114E-2,6.697950363E0
1.007343782E1,-2.337000132E0,-3.405000269E-2,7.065000534E0
1.009343782E1,-3.298950195E0,-3.195000067E-2,7.186950207E0
1.011343782E1,-2.758050203E0,2.310000062E-1,6.696000099E0
1.013343782E1,-1.269000053E0,6.910500526E-1,4.290000439E0
1.015343782E1,-3.760500252E-1,1.426050067E0,1.002000093E0
1.017343782E1,2.430000156E-1,2.481000185E0,-1.437000036E0
1.019343782E1,2.959500253E-1,3.217050076E0,-2.277000189E0
1.021343782E1,1.260000020E-1,3.636000156E0,-2.490000010E0
1.023343782E1,-1.990500093E-1,3.796050072E0,-3.745050192E0
1.025343782E1,-7.849500179E-1,3.592050076E0,-4.639950275E0
1.027343782E1,-1.542000055E0,3.037050247E0,-4.848000050E0
1.029343782E1,-2.563950062E0,2.218050003E0,-5.119050026E0
1.031343782E1,-3.283050060E0,1.612050056E0,-5.914050102E0
1.033343782E1,-3.129000187E0,1.332000017E0,-7.635000229E0
1.035343782E1,-2.638950109E0,1.960050106E0,-9.955050468E0
1.037343782E1,-3.229500055E-1,2.698950052E0,-1.197405052E1
1.039343782E1,5.380499959E-1,3.691050291E0,-1.445400047E1
1.041343782E1,1.543050051E0,4.984050274E0,-1.708995056E1
1.043343782E1,2.982000113E0,6.360000134E0,-1.942200089E1
1.045343782E1,4.159950256E0,7.240950108E0,-1.987305069E1
1.047343782E1,4.303950310E0,7.885050297E0,-1.802205086E1
1.049343782E1,3.030000210E0,7.179000378E0,-1.527795029E1
1.051343782E1,8.610000610E-1,6.190050125E0,-1.225905037E1
1.053343782E1,-3.640500307E-1,5.527050495E0,-9.241950035E0
1.055343782E1,-1.489050031E0,4.914000034E0,-7.537050247E0
1.057343782E1,-2.611950159E0,4.315950394E0,-7.345950127E0
1.059343782E1,-3.268050194E0,4.095000267E0,-7.129950523E0
1.061343782E1,-4.219050407E0,3.688050270E0,-6.073950291E0
1.063343782E1,-4.828950405E0,3.352950096E0,-4.630950451E0
1.065343782E1,-6.012000084E0,3.691050291E0,-3.603000164E0
1.067343782E1,-5.490000248E0,4.003950119E0,-2.875950098E0
1.069343782E1,-5.490000248E0,4.003950119E0,-2.875950098E0
1.071343782E1,-5.823000431E0,4.284000397E0,-1.768950105E0
1.073343782E1,-5.731950283E0,4.356000423E0,2.500500083E-1
1.075343782E1,-6.193950176E0,4.201050282E0,1.486050129E0
1.077343782E1,-6.709050179E0,4.059000015E0,1.515000105E0
1.079343782E1,-6.414000511E0,4.168950081E0,7.270500064E-1
1.081343782E1,-5.481000423E0,4.408950329E0,-1.840500087E-1
1.083343782E1,-5.338950157E0,4.270050049E0,3.730500042E-1
1.085343782E1,-5.932950497E0,4.021049976E0,2.137050152E0
1.087343782E1,-5.671950340E0,3.913050175E0,2.254050016E0
1.089343782E1,-4.956000328E0,3.886950254E0,1.689000130E0
1.091343782E1,-4.882050037E0,3.849000216E0,2.688000202E0
1.093343782E1,-4.899000168E0,3.913050175E0,4.060050011E0
1.095343782E1,-4.650000095E0,3.697950125E0,4.275000095E0
1.097343782E1,-4.176000118E0,3.501000166E0,4.321050167E0
1.099343782E1,-4.033950329E0,3.252000093E0,5.062950134E0
1.101343782E1,-4.188000202E0,3.181050062E0,6.637950420E0
1.103343782E1,-4.068000317E0,3.025050163E0,7.636950493E0
1.105343782E1,-3.639000177E0,3.202050209E0,7.680000305E0
1.107343782E1,-2.514000177E0,3.147000074E0,7.792050362E0
1.109343782E1,-2.464050055E0,2.628000021E0,8.599050522E0
1.111343782E1,-2.863950253E0,2.314050198E0,9.904050827E0
1.113343782E1,-2.899950027E0,2.211000204E0,9.874950409E0
1.115343782E1,-2.445000172E0,1.999950051E0,9.037050247E0
1.117343782E1,-2.111999989E0,1.533000112E0,8.865000725E0
1.119343782E1,-2.317950010E0,1.299000025E0,1.008600044E1
1.121343782E1,-2.299050093E0,1.057050109E0,1.040895081E1
1.123343782E1,-1.530000091E0,7.170000076E-1,9.652950287E0
1.125343782E1,-1.216050029E0,7.260000110E-1,1.039695072E1
1.127343782E1,-1.255050063E0,7.120500207E-1,1.161405087E1
1.129343782E1,-9.390000701E-1,9.060000181E-1,1.117995071E1
1.131343782E1,-1.819500029E-1,1.228950024E0,9.472949982E0
1.133343782E1,8.850000501E-1,1.062000036E0,9.495000839E0
1.135343782E1,1.050000072E0,4.939500093E-1,1.096200085E1
1.137343782E1,5.419500470E-1,4.969500303E-1,1.172895050E1
1.139343782E1,1.120050073E0,9.180000424E-1,1.084800053E1
1.141343782E1,2.332950115E0,1.239000082E0,1.064595032E1
1.143343782E1,2.953950167E0,1.143000007E0,1.121100044E1
1.145343782E1,2.829000235E0,1.099950075E0,1.134795094E1
1.147343782E1,3.028050184E0,9.060000181E-1,1.044495010E1
1.149343782E1,2.829000235E0,8.250000477E-1,1.143195057E1
1.151343782E1,4.069050312E0,1.083000064E0,1.180995083E1
1.153343782E1,4.800000191E0,6.000000238E-1,1.031805038E1
1.155343782E1,4.926000118E0,6.739500165E-1,1.035705090E1
1.157343782E1,5.503050327E0,9.079500437E-1,1.129500008E1
1.159343782E1,6.082950115E0,9.079500437E-1,1.165200043E1
1.161343782E1,6.037050247E0,8.290500641E-1,1.098195076E1
1.163343782E1,6.193050385E0,7.770000100E-1,1.012200069E1
1.165343782E1,6.520950317E0,4.200000167E-1,8.949000359E0
1.167343782E1,5.748000145E0,-1.390500069E-1,8.298000336E0
1.169343782E1,5.247000217E0,-3.019500077E-1,8.797950745E0
1.171343782E1,5.944050312E0,2.700000070E-2,9.547050476E0
1.173343782E1,7.543050289E0,7.840500474E-1,9.772950172E0
1.175343782E1,9.022950172E0,7.770000100E-1,9.574050903E0
1.177343782E1,8.652000427E0,1.219950080E0,8.908050537E0
1.179343782E1,8.062950134E0,1.138050079E0,7.879050255E0
1.181343782E1,8.167950630E0,6.259500384E-1,6.727050304E0
1.183343782E1,8.221050262E0,3.790500164E-1,6.741000175E0
1.185343782E1,8.218950272E0,1.159500033E-1,6.844050407E0
1.187343782E1,8.010000229E0,-5.505000427E-2,6.889950275E0
1.189343782E1,8.233050346E0,-2.539499998E-1,7.090950489E0
1.191343782E1,8.233050346E0,-2.539499998E-1,7.090950489E0
1.193343782E1,8.269050598E0,-3.070500195E-1,6.952050209E0
1.195343782E1,8.523000717E0,-1.849500090E-1,6.624000549E0
1.197343782E1,8.628000259E0,7.950000465E-3,6.403950214E0
1.199343782E1,8.821949959E0,6.599999964E-2,6.088050365E0
1.201343782E1,8.917950630E0,2.140500098E-1,6.028050423E0
1.203343782E1,8.877000809E0,3.630000055E-1,5.953950405E0
1.205343782E1,8.731050491E0,3.000000119E-1,5.893950462E0
1.207343782E1,8.793000221E0,1.950000077E-1,6.076050282E0
1.209343782E1,8.671050072E0,3.495000303E-2,6.217050076E0
1.211343782E1,8.058000565E0,-2.610000074E-1,6.499950409E0
1.213343782E1,7.357050419E0,-5.730000138E-1,7.062000275E0
1.215343782E1,7.249050140E0,-6.760500073E-1,8.008049965E0
1.217343782E1,7.314000130E0,-8.670000434E-1,8.496000290E0
1.219343782E1,7.242000580E0,-1.042050004E0,9.163949966E0
1.221343782E1,7.849950314E0,-1.135050058E0,9.484950066E0
1.223343782E1,8.130000114E0,-9.390000701E-1,9.112050056E0
1.225343782E1,8.130000114E0,-1.042050004E0,8.134950638E0
1.227343782E1,7.699050426E0,-1.135050058E0,7.150950432E0
1.229343782E1,7.656000137E0,-1.329000115E0,6.346050262E0
1.231343782E1,8.022000313E0,-1.321950078E0,6.442050457E0
1.233343782E1,8.227950096E0,-1.468050122E0,6.760050297E0
1.235343782E1,8.341050148E0,-1.522950053E0,7.627050400E0
1.237343782E1,8.740950584E0,-1.470000029E0,7.558050156E0
1.239343782E1,9.133049965E0,-1.377000093E0,7.438050270E0
1.241343782E1,9.339000702E0,-1.317000031E0,7.399950504E0
1.243343782E1,9.231000900E0,-1.248000026E0,7.692000389E0
1.245343782E1,9.102000237E0,-1.152000070E0,8.259000778E0
1.247343782E1,9.508950233E0,-8.890500665E-1,8.668950081E0
1.249343782E1,1.002105045E1,-5.770500302E-1,8.911050797E0
1.251343782E1,1.009305000E1,-2.850000262E-1,9.069000244E0
1.253343782E1,9.892050743E0,-3.360000253E-1,9.265050888E0
1.255343782E1,9.471000671E0,-3.949500322E-1,9.610050201E0
1.257343782E1,9.136050224E0,-4.939500093E-1,1.004505062E1
1.259343782E1,8.982000351E0,-5.749500394E-1,1.054800034E1
1.261343782E1,8.865000725E0,-6.370500326E-1,1.094295025E1
1.263343782E1,8.745000839E0,-5.179499984E-1,1.116600037E1
1.265343782E1,9.013050079E0,-7.090500593E-1,1.136895084E1
1.267343782E1,9.150000572E0,-7.500000596E-1,1.155405045E1
1.269343782E1,9.069000244E0,-7.860000134E-1,1.184400082E1
1.271343782E1,8.677950859E0,-7.429500222E-1,1.176495075E1
1.273343782E1,8.512949944E0,-5.800500512E-1,1.176900101E1
1.275343782E1,8.299950600E0,-4.960500300E-1,1.193205070E1
1.277343782E1,7.302000523E0,-1.540050030E0,1.267005062E1
1.279343782E1,6.399000168E0,-2.335050106E0,1.308900070E1
1.281343782E1,5.206950188E0,-3.252000093E0,1.299795055E1
1.283343782E1,4.129050255E0,-3.589050055E0,1.271505070E1
1.285343782E1,3.226050138E0,-3.739950180E0,1.284405041E1
1.287343782E1,2.877000093E0,-3.514950275E0,1.342395020E1
1.289343782E1,2.677950144E0,-2.905050039E0,1.438605022E1
1.291343782E1,4.041000366E0,-2.932950258E0,1.386000061E1
1.293343782E1,4.348950386E0,-2.919000149E0,1.240605068E1
1.295343782E1,2.716050148E0,-2.998050213E0,1.068705082E1
1.297343782E1,1.570500135E-1,-2.413950205E0,1.113000011E1
1.299343782E1,-1.072950006E0,-2.016000032E0,1.151295090E1
1.301343782E1,-9.580500722E-1,-1.501950026E0,1.060605049E1
1.303343782E1,-7.450500131E-1,-6.900000572E-1,9.210000038E0
1.305343782E1,-5.239500403E-1,-1.990500093E-1,7.480950356E0
1.307343782E1,-1.555950046E0,-2.299500108E-1,6.643050194E0
1.309343782E1,-3.982050180E0,-3.690000176E-1,7.990950584E0
1.311343782E1,-5.470950127E0,-6.040500402E-1,9.186000824E0
1.313343782E1,-4.165950298E0,-7.810500264E-1,8.037000656E0
1.315343782E1,-2.856000185E0,-4.510500133E-1,5.736000061E0
1.317343782E1,-2.041949987E0,1.300500035E-1,3.322050095E0
1.319343782E1,-4.999500215E-1,1.654950023E0,4.110000134E-1
1.321343782E1,6.405000389E-2,2.125050068E0,-8.329500556E-1
1.323343782E1,4.110000134E-1,2.512950182E0,-2.293950081E0
1.325343782E1,9.780000448E-1,2.826000214E0,-4.192049980E0
1.327343782E1,1.147950053E0,3.102000237E0,-5.725050449E0
1.329343782E1,9.060000181E-1,3.030000210E0,-7.003050327E0
1.331343782E1,2.380500138E-1,2.613000154E0,-7.606950283E0
1.333343782E1,-3.660000265E-1,1.933050036E0,-8.038050652E0
1.335343782E1,-8.190000653E-1,1.416000009E0,-8.145000458E0
1.337343782E1,-1.054050088E0,1.267950058E0,-8.404050827E0
1.339343782E1,-6.270000339E-1,1.609950066E0,-9.931050301E0
1.341343782E1,8.149500489E-1,2.764050245E0,-1.312095070E1
1.343343782E1,2.934000254E0,4.486050129E0,-1.689599991E1
1.345343782E1,4.548000336E0,6.457950115E0,-1.997805023E1
1.347343782E1,5.524950027E0,6.463050365E0,-1.990800095E1
1.349343782E1,3.826950073E0,6.679050446E0,-1.744695091E1
1.351343782E1,3.408000231E0,6.268950462E0,-1.473195076E1
1.353343782E1,2.368950129E0,5.986950397E0,-1.279695034E1
1.355343782E1,1.225050092E0,5.685000420E0,-1.150200081E1
1.357343782E1,-4.605000094E-2,5.167950153E0,-1.042200089E1
1.359343782E1,-1.173000097E0,4.588050365E0,-1.006995010E1
1.361343782E1,-2.172000170E0,3.360000134E0,-7.336050510E0
1.363343782E1,-3.193950176E0,2.862000227E0,-5.779950142E0
1.365343782E1,-4.087049961E0,2.671050072E0,-4.930050373E0
1.367343782E1,-3.828000069E0,2.866950035E0,-4.495950222E0
1.369343782E1,-3.868950129E0,2.944050074E0,-3.610950232E0
1.369343782E1,-3.828000069E0,2.866950035E0,-4.495950222E0
1.373343782E1,-5.425050259E0,2.685000181E0,-5.359500051E-1
1.375343782E1,-5.490000248E0,2.647050142E0,-1.099500060E-1
1.377343782E1,-4.726050377E0,2.458050013E0,1.206000090E0
1.379343782E1,-5.020950317E0,2.271000147E0,2.994000196E0
1.381343782E1,-5.614950180E0,2.130000114E0,2.925000191E0
1.383343782E1,-5.952000141E0,2.047950029E0,3.127950191E0
1.385343782E1,-5.575950146E0,2.215950012E0,4.153050423E0
1.387343782E1,-4.915050030E0,2.491050005E0,4.336950302E0
1.389343782E1,-4.923000336E0,2.412000179E0,4.867050171E0
1.391343782E1,-5.338950157E0,2.488950014E0,6.556950092E0
1.393343782E1,-5.184000015E0,2.692050219E0,6.756000519E0
1.395343782E1,-4.498950005E0,2.695050240E0,6.691050529E0
1.397343782E1,-4.128000259E0,2.560950041E0,7.345050335E0
1.399343782E1,-4.384050369E0,2.640000105E0,7.986000538E0
1.401343782E1,-4.401000023E0,2.460000038E0,7.792050362E0
1.403343782E1,-4.401000023E0,2.460000038E0,7.792050362E0
1.405343782E1,-3.831000090E0,1.963950038E0,1.001895046E1
1.407343782E1,-3.666000128E0,1.990950108E0,9.127950668E0
1.409343782E1,-2.575950146E0,1.975950122E0,7.792050362E0
1.411343782E1,-2.047049999E0,1.758000135E0,8.844000816E0
1.413343782E1,-2.478000164E0,1.260000110E0,1.037100029E1
1.415343782E1,-2.791950226E0,9.319500327E-1,1.052895069E1
1.417343782E1,-2.173950195E0,7.669500113E-1,9.307950020E0
1.419343782E1,-1.413000107E0,6.240000129E-1,9.682050705E0
1.421343782E1,-9.100500345E-1,3.840000033E-1,1.018695068E1
1.423343782E1,-9.390000701E-1,1.450500041E-1,1.030905056E1
1.425343782E1,-5.959500074E-1,-3.600000218E-2,1.024200058E1
1.427343782E1,3.289500177E-1,-2.700000070E-2,1.017195034E1
1.429343782E1,1.483050108E0,2.760000229E-1,1.047195053E1
1.431343782E1,2.419950008E0,5.680500269E-1,1.089300060E1
1.433343782E1,2.785950184E0,5.230500102E-1,1.052895069E1
1.435343782E1,2.857950211E0,3.070500195E-1,1.051695061E1
1.437343782E1,2.659050226E0,-1.200000010E-2,1.131195068E1
1.439343782E1,2.671050072E0,-2.920500040E-1,1.252395058E1
1.441343782E1,2.683050156E0,-7.200000435E-2,1.189395046E1
1.443343782E1,3.258000135E0,3.240000010E-1,1.061295033E1
1.445343782E1,4.165050030E0,7.189500332E-1,9.805950165E0
1.447343782E1,4.785000324E0,2.380500138E-1,1.086705017E1
1.449343782E1,5.125050068E0,2.050500065E-1,1.013595009E1
1.451343782E1,5.664000034E0,-1.030500084E-1,9.631050110E0
1.453343782E1,6.106950283E0,-3.259500265E-1,9.342000008E0
1.455343782E1,6.460950375E0,-5.560500026E-1,8.676000595E0
1.457343782E1,6.616950512E0,-6.589500308E-1,7.444950581E0
1.459343782E1,7.282050133E0,-7.500000596E-1,6.744000435E0
1.461343782E1,8.638050079E0,-7.740000486E-1,7.318050385E0
1.463343782E1,9.925950050E0,-9.169500470E-1,8.226000786E0
1.465343782E1,9.712950706E0,-1.080000043E0,9.093000412E0
1.467343782E1,9.094950676E0,-1.192950010E0,9.504000664E0
1.469343782E1,9.183000565E0,-1.345950007E0,9.049050331E0
1.471343782E1,9.511050224E0,-1.276950002E0,8.362050056E0
1.473343782E1,9.685950279E0,-1.273950100E0,7.861950397E0
1.475343782E1,9.451950073E0,-1.474950075E0,7.897950172E0
1.477343782E1,9.231000900E0,-1.621050119E0,8.197050095E0
1.479343782E1,9.306000710E0,-1.614000082E0,8.425050735E0
1.481343782E1,9.538050652E0,-1.396050096E0,8.440950394E0
1.483343782E1,9.643050194E0,-1.297950029E0,8.191950798E0
1.485343782E1,9.412950516E0,-1.345950007E0,7.845000267E0
1.487343782E1,9.154950142E0,-1.378950119E0,7.387950420E0
1.489343782E1,9.283950806E0,-1.084950089E0,6.411000252E0
1.491343782E1,9.757950783E0,-9.960000515E-1,5.914950371E0
1.493343782E1,1.000005054E1,-9.630000591E-1,5.616000175E0
1.495343782E1,9.781949997E0,-6.300000548E-1,5.311950207E0
1.497343782E1,9.628950119E0,-3.499500155E-1,4.720950127E0
1.499343782E1,9.612000465E0,-8.205000311E-2,4.000050068E0
1.501343782E1,9.412950516E0,6.000000052E-3,3.226950169E0
1.503343782E1,9.154950142E0,-4.699500203E-1,2.367000103E0
1.505343782E1,8.581950188E0,-1.152000070E0,2.824050188E0
1.507343782E1,8.083950043E0,-1.630950093E0,3.976050138E0
1.509343782E1,8.095950127E0,-1.851000071E0,5.398050308E0
1.511343782E1,8.524950027E0,-1.854000092E0,6.255000114E0
1.513343782E1,9.085050583E0,-2.014050007E0,6.889950275E0
1.515343782E1,8.890950203E0,-1.927950144E0,6.559050083E0
1.517343782E1,9.181050301E0,-1.846050143E0,6.070950508E0
1.519343782E1,9.526050568E0,-2.308050156E0,5.536950111E0
1.521343782E1,9.222000122E0,-2.524050236E0,5.029050350E0
1.523343782E1,9.436950684E0,-2.725050211E0,5.082000256E0
1.525343782E1,9.574050903E0,-2.602950096E0,5.458050251E0
1.527343782E1,9.193050385E0,-2.260950089E0,5.350050449E0
1.529343782E1,9.229050636E0,-1.855950117E0,4.998000145E0
1.531343782E1,9.229050636E0,-1.855950117E0,4.998000145E0
1.533343782E1,9.708000183E0,-9.799500704E-1,4.096050262E0
1.535343782E1,8.962950706E0,-9.439500570E-1,4.122000217E0
1.537343782E1,7.942950249E0,-1.023000002E0,4.444950104E0
1.539343782E1,7.347000122E0,-1.152000070E0,4.696950436E0
1.541343782E1,7.603050232E0,-1.204950094E0,5.119950294E0
1.543343782E1,8.436000824E0,-1.032000065E0,5.970000267E0
1.545343782E1,9.271950722E0,-9.889500737E-1,6.835050106E0
1.547343782E1,9.736950874E0,-1.055999994E0,8.140049934E0
1.549343782E1,9.628950119E0,-1.288950086E0,9.064050674E0
1.551343782E1,9.463950157E0,-1.569000125E0,9.259950638E0
1.553343782E1,9.543000221E0,-1.576050043E0,9.394050598E0
1.555343782E1,9.361050606E0,-1.711950064E0,9.672000885E0
1.557343782E1,8.946000099E0,-1.870050073E0,9.973950386E0
1.559343782E1,8.452950478E0,-1.971000075E0,9.997950554E0
1.561343782E1,8.281050682E0,-1.899000049E0,9.837000847E0
1.563343782E1,8.379000664E0,-1.807950139E0,9.619050026E0
1.565343782E1,7.903050423E0,-1.650000095E0,9.571050644E0
1.567343782E1,7.402050495E0,-1.336050034E0,9.310050011E0
1.569343782E1,7.153050423E0,-1.126049995E0,8.827050209E0
1.571343782E1,6.717000484E0,-8.119500279E-1,8.680950165E0
1.573343782E1,6.784050465E0,-2.710500062E-1,9.981000900E0
1.575343782E1,6.418050289E0,-3.640500307E-1,1.038300037E1
1.577343782E1,5.958000183E0,-3.310500085E-1,1.040895081E1
1.579343782E1,5.757000446E0,-4.480500221E-1,1.018005085E1
1.581343782E1,5.013000011E0,-7.069500089E-1,1.037295055E1
1.583343782E1,3.973050117E0,-8.260500431E-1,1.049595070E1
1.585343782E1,3.459000111E0,-8.140500188E-1,1.069395065E1
1.587343782E1,3.217050076E0,-1.006049991E0,1.134795094E1
1.589343782E1,2.536950111E0,-9.270000458E-1,1.167600060E1
1.591343782E1,2.130000114E0,-9.529500604E-1,1.172400093E1
1.593343782E1,1.768050075E0,-4.939500093E-1,1.188705063E1
1.595343782E1,1.627050042E0,-3.480000198E-1,1.229805088E1
1.597343782E1,1.663050056E0,-3.400500119E-1,1.237500095E1
1.599343782E1,1.404000044E0,-7.879500389E-1,1.189605045E1
1.601343782E1,-2.400000021E-2,-1.003950000E0,1.110405064E1
1.603343782E1,-1.393950105E0,-1.141950011E0,1.100100040E1
1.605343782E1,-1.798050046E0,-1.219050050E0,1.159005070E1
1.607343782E1,-2.068950176E0,-1.276950002E0,1.220700073E1
1.609343782E1,-1.819950104E0,-1.719000101E0,1.281600094E1
1.611343782E1,-1.611000061E0,-2.289000034E0,1.302600098E1
1.613343782E1,-1.711950064E0,-3.055050135E0,1.316805077E1
1.615343782E1,-2.140950203E0,-4.012950420E0,1.400295067E1
1.617343782E1,-3.619950056E0,-4.405950069E0,1.576095104E1
1.619343782E1,-2.338950157E0,-3.877050161E0,1.454205036E1
1.621343782E1,-2.970000207E-1,-3.115050077E0,1.237005043E1
1.623343782E1,8.250000477E-1,-2.518950224E0,1.024395084E1
1.625343782E1,-6.510000229E-1,-1.837050080E0,9.199950218E0
1.627343782E1,-2.718000174E0,-1.590000033E0,8.877000809E0
1.629343782E1,-2.446950197E0,-1.188000083E0,8.298000336E0
1.631343782E1,-7.759500146E-1,-4.740000367E-1,6.507000446E0
1.633343782E1,1.024049997E0,6.760500073E-1,3.942000151E0
1.635343782E1,1.902000070E0,1.756050110E0,1.273050070E0
1.637343782E1,1.753950119E0,2.316000223E0,-6.940500140E-1
1.639343782E1,1.447950125E0,2.995950222E0,-1.650000095E0
1.641343782E1,1.771050096E0,3.283950090E0,-1.984950066E0
1.643343782E1,1.051950097E0,3.094050169E0,-1.528050065E0
1.645343782E1,1.143000007E0,2.746950150E0,-1.261950016E0
1.647343782E1,1.585950017E0,2.541000128E0,-2.155050039E0
1.649343782E1,1.713000059E0,1.939950109E0,-4.565999985E0
1.651343782E1,8.920500278E-1,1.110000014E0,-6.486000538E0
1.653343782E1,9.000000544E-3,6.379500031E-1,-6.285000324E0
1.655343782E1,1.639050126E0,-1.420500129E-1,-5.542950153E0
1.657343782E1,7.440000176E-1,1.350000054E-1,-6.772950172E0
1.659343782E1,7.440000176E-1,1.350000054E-1,-6.772950172E0
1.659343782E1,4.864050388E0,2.922000170E0,-1.642995071E1
1.663343782E1,9.969000816E0,7.275000572E0,-3.190395164E1
1.665343782E1,9.832050323E0,7.441950321E0,-3.181995201E1
1.667343782E1,8.881950378E0,6.130050182E0,-2.440305138E1
1.669343782E1,8.881950378E0,6.130050182E0,-2.440305138E1
1.671343782E1,3.636000156E0,3.010950089E0,-1.257705021E1
1.673343782E1,1.807050109E0,2.164950132E0,-1.059495068E1
1.675343782E1,5.470499992E-1,1.489950061E0,-1.023795033E1
1.677343782E1,-1.099500060E-1,1.162050009E0,-9.903000832E0
1.679343782E1,-4.330500066E-1,1.224000096E0,-8.779950142E0
1.681343782E1,-1.044000030E0,1.179000020E0,-6.880950451E0
1.683343782E1,-1.599000096E0,1.243950009E0,-4.824000359E0
1.685343782E1,-1.683000088E0,1.561950088E0,-2.926050186E0
1.687343782E1,-2.143050194E0,2.188950062E0,-2.148000002E0
1.689343782E1,-2.595000029E0,2.232000113E0,-1.899000049E0
1.691343782E1,-2.770050049E0,2.355000019E0,6.405000389E-2
1.693343782E1,-3.321000099E0,2.284950018E0,2.659050226E0
1.695343782E1,-3.478950262E0,2.235000134E0,3.574050188E0
1.697343782E1,-3.847950220E0,2.398050070E0,2.985000134E0
1.699343782E1,-2.908950090E0,2.575050116E0,2.221050024E0
1.701343782E1,-2.812950134E0,1.701000094E0,6.009000301E0
1.703343782E1,-4.269000053E0,1.794000030E0,8.365050316E0
1.705343782E1,-4.164000034E0,1.794000030E0,8.269050598E0
1.707343782E1,-3.187050104E0,2.158050060E0,6.528000355E0
1.709343782E1,-2.655000210E0,2.556000233E0,5.386050224E0
1.711343782E1,-2.136000156E0,2.251950026E0,5.434050083E0
1.713343782E1,-2.136000156E0,2.251950026E0,5.434050083E0
1.715343782E1,-1.333950043E0,1.516950130E0,9.121050835E0
1.717343782E1,-1.642950058E0,9.990000725E-1,8.464950562E0
1.719343782E1,-2.020950079E0,5.299500227E-1,9.214950562E0
1.721343782E1,-1.767000079E0,4.009500146E-1,1.018200016E1
1.723343782E1,-1.270500124E-1,3.360000253E-1,9.018000603E0
1.725343782E1,9.780000448E-1,-3.090000153E-1,8.350049973E0
1.727343782E1,7.699500322E-1,-1.315050006E0,1.155900097E1
1.729343782E1,-2.080500126E-1,-1.590000033E0,1.545900059E1
1.731343782E1,3.150000274E-1,-1.348050117E0,1.467795086E1
1.733343782E1,1.777950048E0,-1.249950051E0,1.141305065E1
1.735343782E1,2.941950083E0,-1.356000066E0,1.080000019E1
1.737343782E1,3.334050179E0,-1.710000038E0,1.285395050E1
1.739343782E1,2.824050188E0,-1.951950073E0,1.455900097E1
1.741343782E1,2.101050138E0,-1.987950087E0,1.517895031E1
1.743343782E1,2.101050138E0,-1.987950087E0,1.517895031E1
1.745343782E1,2.101050138E0,-1.987950087E0,1.517895031E1
1.747343782E1,6.804000378E0,-8.650500178E-1,1.004805088E1
1.749343782E1,6.130950451E0,-1.741050124E0,1.089105034E1
1.751343782E1,5.199000359E0,-2.377950191E0,1.292805099E1
1.753343782E1,4.873950005E0,-1.912950039E0,1.380405045E1
1.755343782E1,6.070950508E0,-6.040500402E-1,1.302600098E1
1.757343782E1,8.214000702E0,6.795000285E-2,1.115595055E1
1.759343782E1,9.090000153E0,-4.605000094E-2,9.330000877E0
1.761343782E1,8.431950569E0,-9.960000515E-1,8.788050652E0
1.763343782E1,6.703050137E0,-1.801050067E0,9.231000900E0
1.765343782E1,5.239950180E0,-1.885050058E0,1.054305077E1
1.767343782E1,5.986950397E0,-1.861050129E0,1.137195015E1
1.769343782E1,7.384950161E0,-1.612050056E0,1.089795017E1
1.771343782E1,7.950000286E0,-1.291050076E0,9.672000885E0
1.773343782E1,7.795050144E0,-1.273950100E0,8.604000092E0
1.775343782E1,7.608000278E0,-1.297950029E0,8.202000618E0
1.777343782E1,7.711050510E0,-1.348050117E0,8.062950134E0
1.779343782E1,7.905000210E0,-1.408050060E0,7.789950371E0
1.781343782E1,8.235000610E0,-1.348050117E0,7.597950459E0
1.783343782E1,8.407950401E0,-1.261950016E0,7.378050327E0
1.785343782E1,8.407950401E0,-1.261950016E0,7.378050327E0
1.787343782E1,8.671050072E0,-1.639950037E0,6.552000523E0
1.789343782E1,8.302050591E0,-1.930050135E0,6.235950470E0
1.791343782E1,8.191950798E0,-2.188950062E0,6.174000263E0
1.793343782E1,8.500950813E0,-2.227050066E0,6.121050358E0
1.795343782E1,9.118950844E0,-2.134050131E0,5.781000137E0
1.797343782E1,9.523050308E0,-1.980000138E0,5.458050251E0
1.799343782E1,9.325050354E0,-1.834050059E0,4.977000237E0
1.801343782E1,9.400950432E0,-1.750950098E0,4.588950157E0
1.803343782E1,9.475950241E0,-1.759950042E0,4.117050171E0
1.805343782E1,9.504000664E0,-1.843950033E0,4.222949982E0
1.807343782E1,9.495000839E0,-2.042999983E0,4.926000118E0
1.809343782E1,8.434050560E0,-2.067000151E0,6.247950077E0
1.811343782E1,8.061000824E0,-2.431050062E0,9.555000305E0
1.813343782E1,9.241050720E0,-2.622000217E0,1.060800076E1
1.815343782E1,9.130949974E0,-2.119050026E0,9.397050858E0
1.817343782E1,8.259000778E0,-1.396050096E0,6.004050255E0
1.819343782E1,7.237050533E0,-8.410500288E-1,2.524950027E0
1.821343782E1,7.498050213E0,-1.135050058E0,1.102950096E0
1.823343782E1,7.384950161E0,-1.542000055E0,1.456950068E0
1.825343782E1,7.347000122E0,-1.717050076E0,2.455950022E0
1.827343782E1,7.713000298E0,-1.734000087E0,3.202950239E0
1.829343782E1,1.030905056E1,-1.183050036E0,3.009000063E0
1.831343782E1,1.023900032E1,-1.261950016E0,3.430050135E0
1.833343782E1,9.387000084E0,-1.912950039E0,4.536000252E0
1.835343782E1,8.355000496E0,-2.596050024E0,5.656950474E0
1.837343782E1,8.506050110E0,-3.193950176E0,5.961000443E0
1.839343782E1,9.753000259E0,-3.204000235E0,5.583000183E0
1.841343782E1,1.035405064E1,-2.851950169E0,5.548950195E0
1.843343782E1,1.026795006E1,-2.821050167E0,5.848050117E0
1.845343782E1,9.708000183E0,-2.842050076E0,6.286050320E0
1.847343782E1,9.862950325E0,-2.635950089E0,6.592950344E0
1.849343782E1,1.055805016E1,-1.879950047E0,7.029000282E0
1.851343782E1,1.135305023E1,-1.648050070E0,6.910950184E0
1.853343782E1,1.095000076E1,-1.867950082E0,6.880050182E0
1.855343782E1,9.856050491E0,-2.185950041E0,7.207950115E0
1.857343782E1,9.468000412E0,-2.236950159E0,7.953000546E0
1.859343782E1,9.823050499E0,-2.068950176E0,8.580000877E0
1.861343782E1,1.013400078E1,-1.966050148E0,8.725950241E0
1.863343782E1,9.439949989E0,-1.978050113E0,8.962950706E0
1.865343782E1,8.641950607E0,-1.954050064E0,9.283950806E0
1.867343782E1,8.736000061E0,-1.927950144E0,9.751049995E0
1.869343782E1,8.881950378E0,-1.789050102E0,1.008900070E1
1.871343782E1,8.881950378E0,-1.789050102E0,1.008900070E1
1.873343782E1,8.881950378E0,-1.789050102E0,1.008900070E1
1.875343782E1,8.913000107E0,-1.175999999E0,1.155405045E1
1.877343782E1,8.239950180E0,-1.269000053E0,1.201095104E1
1.879343782E1,7.014000416E0,-9.799500704E-1,1.237305069E1
1.881343782E1,6.937950134E0,-4.000500143E-1,1.308900070E1
1.883343782E1,7.354050159E0,-2.689500153E-1,1.322700024E1
1.885343782E1,6.601950169E0,-6.490500569E-1,1.233705044E1
1.887343782E1,5.071950436E0,-7.930500507E-1,1.149900055E1
1.889343782E1,4.222050190E0,-6.780000329E-1,1.147200012E1
1.891343782E1,3.853950262E0,-4.410000145E-1,1.186005020E1
1.893343782E1,3.580950260E0,-2.160000056E-1,1.197495079E1
1.895343782E1,3.010950089E0,-2.329500169E-1,1.143900013E1
1.897343782E1,2.013000011E0,-3.859500289E-1,1.110600090E1
1.899343782E1,1.153050065E0,-3.160500228E-1,1.065105057E1
1.901343782E1,6.570000052E-1,-1.540500075E-1,9.727050781E0
1.903343782E1,-2.539499998E-1,-4.095000029E-2,9.423000336E0
1.905343782E1,-1.240050077E0,1.305000018E-2,9.523050308E0
1.907343782E1,-1.698000073E0,2.260500044E-1,8.800050735E0
1.909343782E1,-1.819950104E0,5.040000081E-1,8.374050140E0
1.911343782E1,-2.227050066E0,6.520500183E-1,8.414999962E0
1.913343782E1,-2.227050066E0,6.520500183E-1,8.414999962E0
1.915343782E1,-3.747000217E0,9.900000691E-1,7.183950424E0
1.917343782E1,-4.207050323E0,1.106999993E0,6.579000473E0
1.919343782E1,-4.372050285E0,1.312950015E0,5.499000072E0
1.921343782E1,-4.702050209E0,1.459050059E0,4.936050415E0
1.923343782E1,-5.485050201E0,1.375050068E0,5.082000256E0
1.925343782E1,-6.328050137E0,1.119000077E0,5.106000423E0
1.927343782E1,-6.574950218E0,1.167000055E0,4.849950314E0
1.929343782E1,-6.228000164E0,1.473000050E0,3.612000227E0
1.931343782E1,-5.689050198E0,1.897050142E0,1.972050071E0
1.933343782E1,-5.650950432E0,2.479050159E0,1.084050059E0
1.935343782E1,-5.244000435E0,2.794950247E0,6.360000372E-1
1.937343782E1,-4.621050358E0,3.220950127E0,1.120500043E-1
1.939343782E1,-4.342950344E0,3.565950155E0,-8.160000443E-1
1.941343782E1,-4.057950020E0,3.820050240E0,-1.281000018E0
1.943343782E1,-3.124950171E0,4.453950405E0,-2.428050041E0
1.945343782E1,-2.856000185E0,4.882950306E0,-3.682050228E0
1.947343782E1,-3.369000196E0,4.864050388E0,-3.678000212E0
1.949343782E1,-2.848950148E0,4.335000038E0,-2.703000069E0
1.951343782E1,-2.353950024E0,3.195000172E0,-2.503950119E0
1.953343782E1,-3.052950144E0,3.358050108E0,-4.081950188E0
1.955343782E1,-6.460500360E-1,3.159000158E0,-6.295050144E0
1.957343782E1,-1.005000062E-2,3.126000166E0,-8.112000465E0
1.959343782E1,-1.005000062E-2,3.126000166E0,-8.112000465E0
1.961343782E1,2.050500065E-1,2.604000092E0,-9.199050903E0
1.963343782E1,3.769500256E-1,2.764050245E0,-7.971000195E0
1.965343782E1,1.063950062E0,3.432000160E0,-8.088000298E0
1.967343782E1,2.752050161E0,4.675050259E0,-9.895950317E0
1.969343782E1,5.013000011E0,5.917050362E0,-1.322805023E1
1.971343782E1,7.065000534E0,6.822000504E0,-1.725105095E1
1.973343782E1,7.930950165E0,7.165050507E0,-1.918500137E1
1.975343782E1,7.837950230E0,6.814950466E0,-1.816305161E1
1.977343782E1,6.559050083E0,6.075000286E0,-1.563195038E1
1.979343782E1,4.965000153E0,5.119950294E0,-1.265895081E1
1.981343782E1,3.622050285E0,4.732050419E0,-1.024800014E1
1.983343782E1,2.640000105E0,4.605000019E0,-9.462000847E0
1.985343782E1,1.989000082E0,4.678950310E0,-9.691950798E0
1.987343782E1,1.636950135E0,4.572000027E0,-9.508050919E0
1.989343782E1,7.939500213E-1,3.825000286E0,-8.722050667E0
1.991343782E1,-6.870000362E-1,3.166050196E0,-7.683000565E0
1.993343782E1,-2.160000086E0,2.794950247E0,-7.045950413E0
1.995343782E1,-2.152050018E0,2.730000019E0,-6.388050079E0
1.997343782E1,-2.266950130E0,2.758950233E0,-5.220000267E0
1.999343782E1,-2.950050116E0,2.302050114E0,-3.843000174E0
2.001343782E1,-4.018050194E0,2.328000069E0,-2.119050026E0
2.003343782E1,-4.018050194E0,2.328000069E0,-2.119050026E0
2.005343782E1,-3.795000076E0,2.742000103E0,-2.128050089E0
2.007343782E1,-4.099050045E0,2.685000181E0,-2.269950151E0
2.009343782E1,-4.543950081E0,2.524950027E0,-6.439500451E-1
2.011343782E1,-4.731000423E0,2.517000198E0,1.218000054E0
2.013343782E1,-4.587000370E0,2.512950182E0,2.190000057E0
2.015343782E1,-4.495950222E0,2.737950087E0,2.335950136E0
2.017343782E1,-4.698000431E0,2.587050200E0,2.053050041E0
2.019343782E1,-5.193000317E0,2.223000050E0,3.277050257E0
2.021343782E1,-5.434950352E0,1.924050093E0,5.460000038E0
2.023343782E1,-5.229000092E0,2.094000101E0,6.327000141E0
2.025343782E1,-5.029950142E0,2.125050068E0,5.668950081E0
2.027343782E1,-4.662000179E0,1.857000113E0,5.572950363E0
2.029343782E1,-4.743000031E0,1.693950057E0,6.901950359E0
2.031343782E1,-4.851000309E0,1.429950118E0,8.334000587E0
2.033343782E1,-4.236000061E0,1.354050040E0,8.472000122E0
2.035343782E1,-3.598950148E0,1.495050073E0,8.298000336E0
2.037343782E1,-3.208050251E0,1.435050011E0,8.137050629E0
2.039343782E1,-2.950050116E0,1.303950071E0,8.977950096E0
2.041343782E1,-1.903050065E0,4.249500334E-1,9.958950043E0
2.043343782E1,-1.903050065E0,4.249500334E-1,9.958950043E0
2.045343782E1,-1.903050065E0,4.249500334E-1,9.958950043E0
2.047343782E1,-1.027050018E0,7.005000114E-2,1.132905006E1
2.049343782E1,1.950000077E-1,-2.230500132E-1,1.114395046E1
2.051343782E1,2.140500098E-1,-5.299500227E-1,1.155105019E1
2.053343782E1,2.140500098E-1,-5.299500227E-1,1.155105019E1
2.053343782E1,2.959500253E-1,-6.880500317E-1,1.195800018E1
2.057343782E1,2.047950029E0,-6.439500451E-1,1.282995033E1
2.059343782E1,2.544000149E0,-8.239500523E-1,1.302195072E1
2.061343782E1,1.941000104E0,-1.164000034E0,1.266000080E1
2.063343782E1,1.261050105E0,-9.990000725E-1,1.218405056E1
2.065343782E1,2.499000072E0,-7.590000629E-1,1.223895073E1
2.067343782E1,3.079950094E0,3.495000303E-2,1.140495014E1
2.069343782E1,4.747050285E0,-1.560000032E-1,1.076100063E1
2.071343782E1,5.446050167E0,2.550000250E-1,1.026600075E1
2.073343782E1,6.502050400E0,5.100000277E-2,1.031595039E1
2.075343782E1,6.439950466E0,-3.120000064E-1,1.007895088E1
2.077343782E1,5.985000134E0,-7.309500575E-1,9.610050201E0
2.079343782E1,5.817000389E0,-1.072950006E0,9.598050117E0
2.081343782E1,6.217050076E0,-7.930500507E-1,9.757950783E0
2.083343782E1,8.650050163E0,-4.429500103E-1,1.021500015E1
2.085343782E1,8.650050163E0,-4.429500103E-1,1.021500015E1
2.087343782E1,7.789950371E0,-4.240500331E-1,8.902950287E0
2.089343782E1,7.965000153E0,-5.389500260E-1,8.707050323E0
2.091343782E1,8.602050781E0,-6.709500551E-1,8.583000183E0
2.093343782E1,9.235950470E0,-6.829500198E-1,8.401050568E0
2.095343782E1,9.667050362E0,-8.530500531E-1,8.061000824E0
2.097343782E1,9.400950432E0,-1.114050031E0,8.170949936E0
2.099343782E1,8.994000435E0,-1.375050068E0,8.194950104E0
2.101343782E1,8.688000679E0,-1.438950062E0,7.846950531E0
2.103343782E1,8.755050659E0,-1.408050060E0,7.170000553E0
2.105343782E1,9.022950172E0,-1.492050052E0,6.700950146E0
2.107343782E1,8.958000183E0,-1.651950121E0,6.532950401E0
2.109343782E1,8.764050484E0,-2.031000137E0,6.540000439E0
2.111343782E1,8.424000740E0,-2.458950043E0,6.612000465E0
2.113343782E1,8.377050400E0,-2.605050087E0,6.604950428E0
2.115343782E1,8.685000420E0,-2.445000172E0,6.880050182E0
2.117343782E1,9.102000237E0,-2.275050163E0,6.892050266E0
2.119343782E1,9.579000473E0,-2.152950048E0,6.705000401E0
2.121343782E1,9.625950813E0,-2.293950081E0,6.229050159E0
2.123343782E1,9.114000320E0,-2.377950191E0,5.701950073E0
2.125343782E1,9.267000198E0,-2.019000053E0,5.226000309E0
2.127343782E1,9.601950645E0,-7.789500356E-1,4.950000286E0
2.129343782E1,9.439949989E0,1.519500017E-1,4.708950043E0
2.131343782E1,1.011705017E1,-1.300500035E-1,5.368950367E0
2.133343782E1,9.054000854E0,1.879500151E-1,6.421050072E0
2.135343782E1,8.590050697E0,4.510500133E-1,6.226950169E0
2.137343782E1,8.221050262E0,-1.009500027E-1,5.242950439E0
2.139343782E1,7.029000282E0,-4.840500355E-1,3.580950260E0
2.141343782E1,7.345050335E0,-5.460000038E-1,1.675050020E0
2.143343782E1,7.885950565E0,-4.480500221E-1,1.024049997E0
2.145343782E1,8.452950478E0,1.450500041E-1,1.299000025E0
2.147343782E1,9.757950783E0,-5.340000391E-1,1.816050053E0
2.149343782E1,8.911050797E0,-1.402950048E0,2.761950016E0
2.151343782E1,7.840050220E0,-1.878000140E0,3.760050297E0
2.153343782E1,7.893000603E0,-1.849050045E0,4.516950130E0
2.155343782E1,8.949000359E0,-2.236950159E0,4.551000118E0
2.157343782E1,9.451950073E0,-2.143050194E0,4.966950417E0
2.159343782E1,9.583050728E0,-1.779000044E0,5.539050102E0
2.161343782E1,9.643050194E0,-1.363050103E0,6.157050133E0
2.163343782E1,9.969000816E0,-1.795950055E0,6.655050278E0
2.165343782E1,9.454050064E0,-2.167050123E0,6.919050217E0
2.167343782E1,9.364950180E0,-2.158050060E0,8.020050049E0
2.169343782E1,9.364950180E0,-2.158050060E0,8.020050049E0
2.171343782E1,1.118700027E1,-2.232000113E0,8.848050117E0
2.173343782E1,1.063695049E1,-2.268000126E0,8.824049950E0
2.175343782E1,9.801000595E0,-2.494950056E0,8.683050156E0
2.177343782E1,9.241050720E0,-2.794950247E0,8.530050278E0
2.179343782E1,8.551050186E0,-2.707950115E0,8.608950615E0
2.181343782E1,8.677950859E0,-2.407050133E0,8.878950119E0
2.183343782E1,9.492000580E0,-2.059050083E0,9.732000351E0
2.185343782E1,9.442049980E0,-2.173950195E0,1.054800034E1
2.187343782E1,8.508000374E0,-2.127000093E0,1.113705063E1
2.189343782E1,8.673000336E0,-2.056950092E0,1.124295044E1
2.191343782E1,8.877000809E0,-1.492050052E0,1.130505085E1
2.193343782E1,9.340950012E0,-1.348050117E0,1.159500027E1
2.195343782E1,9.169050217E0,-1.165950060E0,1.178805065E1
2.197343782E1,8.278050423E0,-1.245000005E0,1.183605099E1
2.199343782E1,7.078950405E0,-1.195050001E0,1.229595089E1
2.201343782E1,6.933000565E0,-9.679500461E-1,1.274100018E1
2.203343782E1,6.952050209E0,-8.790000677E-1,1.295700073E1
2.205343782E1,6.133050442E0,-1.090050101E0,1.303395081E1
2.207343782E1,4.989000320E0,-1.273950100E0,1.316505051E1
2.209343782E1,3.942000151E0,-1.341000080E0,1.305000019E1
2.211343782E1,2.391000032E0,-1.147050023E0,1.311000061E1
2.213343782E1,2.391000032E0,-1.147050023E0,1.311000061E1
2.215343782E1,1.267950058E0,-1.096950054E0,1.175505066E1
2.217343782E1,3.889500201E-1,-9.799500704E-1,1.090995026E1
2.219343782E1,-6.199500561E-1,-8.929500580E-1,1.023495007E1
2.221343782E1,-1.573050022E0,-7.189500332E-1,1.015095043E1
2.223343782E1,-2.023050070E0,-4.549500346E-1,9.267000198E0
2.225343782E1,-2.461050034E0,-2.059500068E-1,8.191950798E0
2.227343782E1,-2.964000225E0,3.495000303E-2,7.881000519E0
2.229343782E1,-3.832950115E0,2.020500153E-1,8.427000046E0
2.231343782E1,-3.868950129E0,3.510000110E-1,7.711050510E0
2.233343782E1,-3.823950291E0,6.330000162E-1,6.094950199E0
2.235343782E1,-4.019999981E0,8.700000644E-1,4.687050343E0
2.237343782E1,-4.051050186E0,1.153050065E0,3.961950302E0
2.239343782E1,-4.300050259E0,1.441950083E0,3.231000185E0
2.241343782E1,-4.686000347E0,1.524000049E0,3.106950045E0
2.243343782E1,-5.023050308E0,1.576050043E0,3.250050068E0
2.245343782E1,-5.368050098E0,1.665000081E0,3.178950071E0
2.247343782E1,-5.173950195E0,1.713000059E0,2.226000071E0
2.249343782E1,-4.543950081E0,2.152950048E0,1.258050084E0
2.251343782E1,-4.008000374E0,2.632050037E0,3.169500232E-1
2.253343782E1,-4.173000336E0,2.824050188E0,-3.280500174E-1
2.255343782E1,-4.173000336E0,2.824050188E0,-3.280500174E-1
2.257343782E1,-3.217950106E0,2.910000086E0,-1.807950139E0
2.259343782E1,-2.326950073E0,3.114000082E0,-3.454950094E0
2.261343782E1,-1.642950058E0,3.717000246E0,-5.035050392E0
2.263343782E1,-1.204050064E0,4.051949978E0,-6.421050072E0
2.265343782E1,-1.678050041E0,3.961050272E0,-7.093950272E0
2.267343782E1,-1.851000071E0,4.038000107E0,-6.955050468E0
2.269343782E1,-1.851000071E0,4.038000107E0,-6.955050468E0
2.271343782E1,-1.879950047E0,2.838000059E0,-7.291050434E0
2.273343782E1,-2.077950001E0,3.439050198E0,-8.469000816E0
2.275343782E1,-6.540000439E-1,3.966000080E0,-9.108000755E0
2.277343782E1,1.279500127E-1,4.420950413E0,-1.020900059E1
2.279343782E1,8.059500456E-1,4.782000065E0,-1.080105019E1
2.281343782E1,7.290000319E-1,5.344950199E0,-1.073400021E1
2.283343782E1,1.057050109E0,5.704050064E0,-1.055205059E1
2.285343782E1,1.591050029E0,6.211950302E0,-1.102095032E1
2.287343782E1,2.092050076E0,6.849000454E0,-1.242600060E1
2.289343782E1,2.932050228E0,6.955950260E0,-1.356405067E1
2.291343782E1,3.598050117E0,7.030950546E0,-1.389195061E1
2.293343782E1,3.234000206E0,6.513000488E0,-1.400205040E1
2.295343782E1,9.229500294E-1,4.885050297E0,-1.145700073E1
2.297343782E1,1.860000044E-1,4.519050121E0,-1.073100090E1
2.299343782E1,1.860000044E-1,4.519050121E0,-1.073100090E1
2.299343782E1,-1.800000072E-1,4.528950214E0,-1.042005062E1
2.303343782E1,-1.591950059E0,3.885000229E0,-8.023050308E0
2.305343782E1,-2.148000002E0,3.721950293E0,-6.646950245E0
2.307343782E1,-2.677050114E0,3.786000252E0,-5.638950348E0
2.309343782E1,-3.229950190E0,3.990000248E0,-5.083050251E0
2.311343782E1,-3.864000082E0,4.122000217E0,-4.683000088E0
2.313343782E1,-3.532050133E0,4.279950142E0,-4.767000198E0
2.315343782E1,-3.031050205E0,4.861050129E0,-4.552050114E0
2.317343782E1,-3.313950062E0,4.729950428E0,-4.065000057E0
2.319343782E1,-4.060950279E0,4.264950275E0,-3.445050240E0
2.321343782E1,-4.678050041E0,3.991950274E0,-3.079050064E0
2.323343782E1,-4.698000431E0,3.999000072E0,-2.727000237E0
2.325343782E1,-4.116000175E0,3.994950294E0,-2.422950029E0
2.327343782E1,-3.960000277E0,3.808050156E0,-1.759950042E0
2.329343782E1,-4.453050137E0,3.315000057E0,2.530499995E-1
2.331343782E1,-5.386950493E0,2.946000099E0,2.230950117E0
2.333343782E1,-5.755950451E0,2.817000151E0,2.274000168E0
2.335343782E1,-4.875000000E0,3.054000139E0,1.660950065E0
2.337343782E1,-4.408050060E0,3.097050190E0,3.709950209E0
2.339343782E1,-4.528050423E0,2.778000116E0,3.688950062E0
2.341343782E1,-4.231050014E0,2.058000088E0,4.278000355E0
2.343343782E1,-4.458000183E0,1.951950073E0,6.661950111E0
2.345343782E1,-4.621050358E0,2.188950062E0,7.297050476E0
2.347343782E1,-3.939000130E0,2.304000139E0,6.190950394E0
2.349343782E1,-3.093000174E0,2.053050041E0,6.234000206E0
2.351343782E1,-3.204000235E0,1.639050126E0,8.134950638E0
2.353343782E1,-3.330000162E0,1.368000031E0,9.222000122E0
2.355343782E1,-3.004950047E0,9.870000482E-1,8.602050781E0
2.357343782E1,-2.823000193E0,3.529500067E-1,8.620950699E0
2.359343782E1,-3.429000139E0,6.105000153E-2,1.018005085E1
2.361343782E1,-2.967000246E0,4.395000264E-2,1.037595081E1
2.363343782E1,-2.440050125E0,-1.579500139E-1,9.679050446E0
2.365343782E1,-2.209950209E0,-3.090000153E-1,1.109205055E1
2.367343782E1,-2.014050007E0,-4.050000310E-1,1.256895065E1
2.369343782E1,-1.441050053E0,-3.480000198E-1,1.232505035E1
2.371343782E1,-6.270000339E-1,-4.099500179E-1,1.168095016E1
2.373343782E1,-4.260000288E-1,-4.840500355E-1,1.189605045E1
2.375343782E1,-6.799500585E-1,-3.979500234E-1,1.256895065E1
2.377343782E1,-3.589500189E-1,-1.219500080E-1,1.290195084E1
2.379343782E1,6.330000162E-1,-4.620000124E-1,1.274595070E1
2.381343782E1,3.490500152E-1,-7.549500465E-1,1.268595028E1
2.383343782E1,3.490500152E-1,-3.070500195E-1,1.232505035E1
2.385343782E1,1.360950112E0,2.295000106E-2,1.091505051E1
2.387343782E1,1.360950112E0,2.295000106E-2,1.091505051E1
2.389343782E1,3.388950109E0,3.120000064E-1,1.036905003E1
2.391343782E1,3.648000240E0,2.880000174E-1,1.087395096E1
2.393343782E1,3.732000113E0,4.030500054E-1,1.126695061E1
2.395343782E1,4.029000282E0,7.699500322E-1,1.074195004E1
2.397343782E1,4.855050087E0,6.550500393E-1,1.013895035E1
2.399343782E1,5.404950142E0,2.620500028E-1,9.775050163E0
2.401343782E1,5.424000263E0,-1.500000060E-2,9.720000267E0
2.403343782E1,5.839050293E0,2.809500098E-1,9.852000237E0
2.405343782E1,6.861000538E0,5.040000081E-1,1.008900070E1
2.407343782E1,7.432950497E0,4.080000222E-1,9.958950043E0
2.409343782E1,7.153050423E0,1.450500041E-1,9.205050468E0
2.411343782E1,7.314000130E0,-1.540500075E-1,8.254950523E0
2.413343782E1,7.333050251E0,-3.640500307E-1,8.535000801E0
2.415343782E1,7.444950581E0,-7.230000496E-1,9.250950813E0
2.417343782E1,7.567050457E0,-5.440500379E-1,9.739050865E0
2.419343782E1,7.972050190E0,-5.220000148E-1,9.508950233E0
2.421343782E1,8.062950134E0,-3.720000088E-1,8.683050156E0
2.423343782E1,8.563050270E0,-1.129500046E-1,7.030950546E0
2.425343782E1,8.367000580E0,-2.590500116E-1,6.612000465E0
2.427343782E1,8.105999947E0,-4.740000367E-1,6.550050259E0
2.429343782E1,8.566050529E0,-5.460000038E-1,6.942000389E0
2.431343782E1,9.009000778E0,-4.890000224E-1,7.443000317E0
2.433343782E1,8.812050819E0,-4.980000257E-1,7.408950329E0
2.435343782E1,8.812050819E0,-4.669500291E-1,7.018950462E0
2.437343782E1,9.064050674E0,-4.890000224E-1,6.592950344E0
2.439343782E1,9.562050819E0,-3.139500022E-1,6.183000088E0
2.441343782E1,9.928050041E0,-3.405000269E-2,5.865000248E0
2.443343782E1,9.949950218E0,-3.000000026E-3,5.628000259E0
2.445343782E1,9.729000092E0,1.800000109E-2,5.362050056E0
2.447343782E1,9.715050697E0,-1.500000060E-2,4.873950005E0
2.449343782E1,9.516000748E0,-1.900500059E-1,4.563000202E0
2.451343782E1,9.352950096E0,-3.949500322E-1,4.491000175E0
2.453343782E1,9.226950645E0,-3.090000153E-1,4.621950150E0
2.455343782E1,9.255000114E0,-1.609500051E-1,4.609950066E0
2.457343782E1,9.385050774E0,-6.300000101E-2,4.261050224E0
2.459343782E1,9.118950844E0,-3.930000067E-1,3.937950134E0
2.461343782E1,8.137050629E0,-8.050500154E-1,4.242000103E0
2.463343782E1,7.227000237E0,-9.840000272E-1,5.142000198E0
2.465343782E1,7.227000237E0,-9.840000272E-1,5.142000198E0
2.467343782E1,8.391000748E0,-2.610000074E-1,6.319950104E0
2.469343782E1,8.391000748E0,-2.610000074E-1,6.319950104E0
2.471343782E1,8.946000099E0,-1.090050101E0,5.635050297E0
2.473343782E1,7.174950123E0,-9.889500737E-1,4.771050453E0
2.475343782E1,8.653950691E0,-7.399500608E-1,4.110000134E0
2.477343782E1,1.014105034E1,-1.224000096E0,3.901950121E0
2.479343782E1,9.106950760E0,-1.162050009E0,4.427999973E0
2.481343782E1,8.566050529E0,-9.889500737E-1,4.981950283E0
2.483343782E1,8.860050201E0,-4.840500355E-1,5.037000179E0
2.485343782E1,9.528000832E0,6.105000153E-2,4.833000183E0
2.487343782E1,9.817950249E0,3.720000088E-1,4.660950184E0
2.489343782E1,9.739050865E0,3.190500140E-1,4.780050278E0
2.491343782E1,9.564000130E0,7.950000465E-3,5.082000256E0
2.493343782E1,9.247950554E0,-3.360000253E-1,5.721000195E0
2.495343782E1,9.186000824E0,-7.500000596E-1,6.190950394E0
2.497343782E1,9.391950607E0,-9.679500461E-1,6.643050194E0
2.499343782E1,9.610050201E0,-1.003950000E0,7.168050289E0
2.501343782E1,1.005300045E1,-9.630000591E-1,7.756950378E0
2.503343782E1,1.004100037E1,-1.047000051E0,7.888050556E0
2.505343782E1,9.375000000E0,-1.240950108E0,7.645950317E0
2.507343782E1,9.210000038E0,-1.183050036E0,7.800000191E0
2.509343782E1,9.423000336E0,-1.152000070E0,8.281050682E0
2.511343782E1,9.301050186E0,-1.174050093E0,8.805000305E0
2.513343782E1,9.301050186E0,-1.174050093E0,8.805000305E0
2.515343782E1,8.239950180E0,-1.237950087E0,9.046950340E0
2.517343782E1,8.022000313E0,-1.345950007E0,9.154950142E0
2.519343782E1,7.716000557E0,-1.336050034E0,9.318000793E0
2.521343782E1,7.366050243E0,-1.348050117E0,9.649950027E0
2.523343782E1,6.918000221E0,-1.308000088E0,9.820050240E0
2.525343782E1,6.703050137E0,-1.165950060E0,9.616950035E0
2.527343782E1,6.514050484E0,-7.140000463E-1,9.142950058E0
2.529343782E1,6.430050373E0,-3.859500289E-1,8.836050034E0
2.531343782E1,6.052050114E0,-4.605000094E-2,8.913000107E0
2.533343782E1,5.853000164E0,2.239500135E-1,9.586050034E0
2.535343782E1,5.752050400E0,3.049500287E-1,9.982950211E0
2.537343782E1,5.323950291E0,3.169500232E-1,1.003305054E1
2.539343782E1,4.783050060E0,-7.905000448E-2,1.014600086E1
2.541343782E1,4.111950397E0,-3.240000010E-1,1.019205093E1
2.543343782E1,3.384000063E0,-4.600500166E-1,1.040700054E1
2.545343782E1,2.974950075E0,-5.059500337E-1,1.090995026E1
2.547343782E1,2.652000189E0,-7.210500240E-1,1.144095039E1
2.549343782E1,1.624950051E0,-1.132950068E0,1.135305023E1
2.551343782E1,9.930000305E-1,-1.327050090E0,1.138905048E1
2.553343782E1,6.000000238E-1,-1.135050058E0,1.157100010E1
2.555343782E1,7.170000076E-1,-9.199500680E-1,1.184805012E1
2.557343782E1,5.779500008E-1,-8.260500431E-1,1.217205048E1
2.559343782E1,5.779500008E-1,-8.260500431E-1,1.217205048E1
2.561343782E1,-4.290000200E-1,-4.549500346E-1,1.222200012E1
2.563343782E1,-7.609500289E-1,-4.549500346E-1,1.192305088E1
2.565343782E1,-1.197000027E0,-4.050000310E-1,1.138905048E1
2.567343782E1,-1.786050081E0,-3.160500228E-1,1.095000076E1
2.569343782E1,-2.272050142E0,-2.920500040E-1,1.082100010E1
2.571343782E1,-2.770050049E0,-1.780500114E-1,1.048095036E1
2.573343782E1,-3.156000137E0,-7.005000114E-2,9.873000145E0
2.575343782E1,-3.637050152E0,7.500000298E-2,9.727050781E0
2.577343782E1,-3.723000288E0,1.369500011E-1,9.741000175E0
2.579343782E1,-3.823950291E0,2.500500083E-1,9.346050262E0
2.581343782E1,-4.096950054E0,4.150500298E-1,8.773950577E0
2.583343782E1,-4.128000259E0,7.290000319E-1,7.764000416E0
2.585343782E1,-4.381950378E0,1.129050016E0,6.775050163E0
2.587343782E1,-4.498950005E0,1.228950024E0,6.202950478E0
2.589343782E1,-4.960950375E0,1.294050097E0,5.908050060E0
2.591343782E1,-4.960950375E0,1.294050097E0,5.908050060E0
2.593343782E1,-6.043050289E0,8.250000477E-1,7.089000225E0
2.595343782E1,-5.643000126E0,9.589500427E-1,6.538050175E0
2.597343782E1,-5.485050201E0,1.234050035E0,5.386050224E0
2.599343782E1,-5.442000389E0,1.435050011E0,4.427999973E0
2.601343782E1,-5.275050163E0,1.636050105E0,3.823050261E0
2.603343782E1,-4.084949970E0,1.845000029E0,3.301050186E0
2.605343782E1,-2.686050177E0,1.903950095E0,1.969950080E0
2.607343782E1,-1.159050107E0,2.101050138E0,4.350000322E-1
2.609343782E1,3.840000033E-1,2.778000116E0,-1.561050057E0
2.611343782E1,1.407000065E0,3.328950167E0,-4.204050064E0
2.613343782E1,1.567050099E0,4.023000240E0,-5.694000244E0
2.615343782E1,1.977000117E0,3.826950073E0,-6.225000381E0
2.617343782E1,5.929500461E-1,2.721000195E0,-6.457050323E0
2.619343782E1,-9.360000491E-1,1.861050129E0,-6.364050388E0
2.621343782E1,-5.719500184E-1,1.342050076E0,-5.809050083E0
2.623343782E1,6.599999964E-2,1.284000039E0,-5.545050144E0
2.625343782E1,1.242000103E0,1.270050049E0,-6.748950481E0
2.627343782E1,2.985000134E0,1.903950095E0,-9.223050117E0
2.629343782E1,5.839050293E0,3.073050261E0,-1.231605053E1
2.631343782E1,8.515049934E0,4.420950413E0,-1.719300079E1
2.633343782E1,1.041405010E1,5.601000309E0,-2.257995033E1
2.635343782E1,1.041405010E1,5.601000309E0,-2.257995033E1
2.637343782E1,9.130949974E0,5.470050335E0,-1.773900032E1
2.639343782E1,7.132050514E0,4.813950062E0,-1.342200089E1
2.641343782E1,5.355000019E0,4.255949974E0,-9.832950592E0
2.643343782E1,3.811050177E0,3.861000299E0,-7.971000195E0
2.645343782E1,2.464950085E0,3.718950272E0,-8.313000679E0
2.647343782E1,2.094000101E0,3.633000135E0,-9.223050117E0
2.649343782E1,1.953000069E0,3.715050220E0,-8.821050644E0
2.651343782E1,1.038000107E0,3.312000275E0,-7.699950218E0
2.653343782E1,-6.990000606E-1,2.637000084E0,-6.345000267E0
2.655343782E1,-1.815000057E0,2.446050167E0,-5.923050404E0
2.657343782E1,-2.161950111E0,2.886000156E0,-5.799000263E0
2.659343782E1,-2.232000113E0,3.279000044E0,-5.217000484E0
2.661343782E1,-2.440050125E0,3.400950193E0,-4.489050388E0
2.663343782E1,-2.919000149E0,3.454050064E0,-3.436050177E0
2.665343782E1,-3.687000275E0,3.636000156E0,-2.743950129E0
2.667343782E1,-4.123050213E0,3.688050270E0,-2.871000051E0
2.669343782E1,-4.104000092E0,3.778950214E0,-1.750050068E0
2.671343782E1,-4.108950138E0,4.071000099E0,-5.890500546E-1
2.673343782E1,-4.449000359E0,4.069050312E0,1.519500017E-1
2.675343782E1,-4.633050442E0,3.637950182E0,5.809500217E-1
2.677343782E1,-5.683950424E0,3.409950256E0,2.877000093E0
2.679343782E1,-5.883000374E0,3.525000095E0,2.131950140E0
2.681343782E1,-5.548050404E0,3.331050158E0,1.539000034E0
2.683343782E1,-4.627950191E0,2.980050087E0,3.265050173E0
2.685343782E1,-5.254950047E0,2.809950113E0,5.925000191E0
2.687343782E1,-6.430950165E0,2.878950119E0,6.460950375E0
2.689343782E1,-5.758050442E0,3.157050133E0,4.570050240E0
2.691343782E1,-4.089000225E0,3.358050108E0,4.102950096E0
2.693343782E1,-4.282950401E0,3.324000120E0,6.030000210E0
2.695343782E1,-5.835000515E0,2.982000113E0,7.768050194E0
2.697343782E1,-6.034050465E0,2.685000181E0,7.648950577E0
2.699343782E1,-4.663950443E0,2.635050058E0,6.508950233E0
2.701343782E1,-3.979050159E0,2.440950155E0,6.990000248E0
2.703343782E1,-4.264050007E0,1.864050031E0,7.620000362E0
2.705343782E1,-4.473000050E0,1.258050084E0,8.392950058E0
2.707343782E1,-3.807000160E0,8.959500194E-1,9.058950424E0
2.709343782E1,-3.060000181E0,7.740000486E-1,9.604950905E0
2.711343782E1,-2.806050062E0,6.520500183E-1,9.829950333E0
2.713343782E1,-2.595000029E0,6.000000238E-1,1.011000061E1
2.715343782E1,-2.128950119E0,8.749500513E-1,1.152000046E1
2.717343782E1,-1.618950129E0,1.150050044E0,1.278000069E1
2.719343782E1,-9.430500269E-1,8.650500178E-1,1.117800045E1
2.721343782E1,-5.479500294E-1,7.099500299E-1,1.127595043E1
2.723343782E1,-3.180000186E-1,6.550500393E-1,1.228695011E1
2.725343782E1,-3.259500265E-1,3.910500109E-1,1.273905087E1
2.727343782E1,-2.950500250E-1,1.969500035E-1,1.242795086E1
2.729343782E1,-2.895000204E-2,1.350000054E-1,1.215705013E1
2.731343782E1,6.120000482E-1,3.700500131E-1,1.217400074E1
2.733343782E1,1.000050068E0,5.350500345E-1,1.195395088E1
2.735343782E1,1.347000122E0,4.849500358E-1,1.162605095E1
2.737343782E1,1.708050132E0,2.719500065E-1,1.104600048E1
2.739343782E1,1.845000029E0,3.070500195E-1,1.088295078E1
2.741343782E1,2.539050102E0,3.070500195E-1,1.141995049E1
2.743343782E1,3.190950155E0,3.705000132E-2,1.144395065E1
2.745343782E1,3.175950050E0,-2.449500114E-1,1.076100063E1
2.747343782E1,3.406050205E0,-6.829500198E-1,1.023195076E1
2.749343782E1,3.363000154E0,-9.679500461E-1,9.937950134E0
2.751343782E1,3.553950071E0,-1.032000065E0,1.003605080E1
2.753343782E1,3.945000172E0,-7.879500389E-1,1.006905079E1
2.755343782E1,4.561950207E0,-4.050000310E-1,9.978000641E0
2.757343782E1,5.535000324E0,-2.520000041E-1,9.516000748E0
2.759343782E1,5.901000500E0,-2.370000184E-1,9.349050522E0
2.761343782E1,5.901000500E0,-2.370000184E-1,9.349050522E0
2.763343782E1,6.310050488E0,-1.750500053E-1,9.559050560E0
2.765343782E1,6.601950169E0,-1.695000008E-2,8.656949997E0
2.767343782E1,6.661950111E0,9.000000358E-2,7.846950531E0
2.769343782E1,6.880050182E0,1.995000057E-2,7.468950272E0
2.771343782E1,7.134000301E0,-1.459500045E-1,7.345050335E0
2.773343782E1,7.402050495E0,-2.970000207E-1,7.191000462E0
2.775343782E1,7.768050194E0,-3.739500046E-1,7.065000534E0
2.777343782E1,8.237999916E0,-4.000500143E-1,7.321050167E0
2.779343782E1,8.182950020E0,-4.030500054E-1,7.849950314E0
2.781343782E1,8.214000702E0,-4.579500258E-1,8.155950546E0
2.783343782E1,8.422050476E0,-4.939500093E-1,7.777950287E0
2.785343782E1,8.482049942E0,-5.179499984E-1,7.090950489E0
2.787343782E1,8.803050041E0,-4.620000124E-1,6.763050556E0
2.789343782E1,9.136050224E0,-2.470500171E-1,6.586050510E0
2.791343782E1,9.646050453E0,-7.950000465E-3,6.471000195E0
2.793343782E1,1.006200027E1,6.795000285E-2,6.136050224E0
2.795343782E1,1.018395042E1,-1.459500045E-1,5.875050068E0
2.797343782E1,1.006500053E1,-2.809500098E-1,5.899050236E0
2.799343782E1,9.832050323E0,-3.379500210E-1,6.090000153E0
2.801343782E1,9.844050407E0,-3.619500101E-1,5.809950352E0
2.803343782E1,9.844050407E0,-3.619500101E-1,5.809950352E0
2.805343782E1,1.078800011E1,-2.569500208E-1,3.993000269E0
2.807343782E1,1.037100029E1,-4.650000334E-1,4.026000023E0
2.809343782E1,9.772050858E0,-6.880500317E-1,4.246050358E0
2.811343782E1,9.550050735E0,-1.030050039E0,4.081050396E0
2.813343782E1,9.028050423E0,-1.237950087E0,3.676950216E0
2.815343782E1,8.638050079E0,-1.513950109E0,3.106950045E0
2.817343782E1,8.302050591E0,-2.028000116E0,2.998950243E0
2.819343782E1,6.640950203E0,-2.473950148E0,4.768050194E0
2.821343782E1,5.367000103E0,-2.743950129E0,7.621950150E0
2.823343782E1,6.648000240E0,-2.433000088E0,8.508000374E0
2.825343782E1,8.017050743E0,-2.710950136E0,7.507950306E0
2.827343782E1,7.171950340E0,-1.638000131E0,5.878950119E0
2.829343782E1,7.728000164E0,-1.048950076E0,5.026950359E0
2.831343782E1,8.866950035E0,-1.171050072E0,5.239950180E0
2.833343782E1,8.587050438E0,-9.840000272E-1,6.069000244E0
2.835343782E1,8.980050087E0,-1.174050093E0,5.962950230E0
2.837343782E1,9.400950432E0,-1.450950027E0,5.179950237E0
2.839343782E1,9.763050079E0,-1.213950038E0,4.812000275E0
2.841343782E1,9.688950539E0,-1.084950089E0,5.025000095E0
2.843343782E1,9.322050095E0,-1.032000065E0,5.476950169E0
2.845343782E1,9.013050079E0,-8.599500656E-1,5.944050312E0
2.847343782E1,9.456000328E0,-1.080000043E0,4.960050106E0
2.849343782E1,9.775050163E0,-9.600000381E-1,5.506050110E0
2.851343782E1,1.004100037E1,-1.027950048E0,6.504000187E0
2.853343782E1,1.036905003E1,-1.140000105E0,6.895050526E0
2.855343782E1,1.028205013E1,-1.152000070E0,7.177050114E0
2.857343782E1,1.028205013E1,-1.152000070E0,7.177050114E0
2.859343782E1,1.075905037E1,-1.221000075E0,7.881000519E0
2.861343782E1,1.080900097E1,-1.285950065E0,8.122950554E0
2.863343782E1,1.046700096E1,-1.497000098E0,8.202000618E0
2.865343782E1,9.853950500E0,-1.645050049E0,8.434050560E0
2.867343782E1,9.277050018E0,-1.690950036E0,8.809950829E0
2.869343782E1,8.878950119E0,-1.606950045E0,9.259950638E0
2.871343782E1,8.872050285E0,-1.506000042E0,9.720000267E0
2.873343782E1,8.863050461E0,-1.711950064E0,1.000500011E1
2.875343782E1,8.101050377E0,-1.738950133E0,9.909000397E0
2.877343782E1,7.339950562E0,-1.510950089E0,9.885000229E0
2.879343782E1,7.230000496E0,-1.231050014E0,1.035705090E1
2.881343782E1,7.395000458E0,-9.390000701E-1,1.091505051E1
2.883343782E1,7.179000378E0,-1.024950027E0,1.096995068E1
2.885343782E1,6.210000515E0,-1.066050053E0,1.095795059E1
2.887343782E1,5.568000317E0,-1.023000002E0,1.172595024E1
2.889343782E1,5.491050243E0,-7.590000629E-1,1.320600033E1
2.891343782E1,4.989000320E0,-6.540000439E-1,1.301400089E1
2.893343782E1,4.603050232E0,-6.760500073E-1,1.267005062E1
2.895343782E1,3.949950218E0,-9.919500351E-1,1.260300064E1
2.897343782E1,3.949950218E0,-9.919500351E-1,1.260300064E1
2.897343782E1,2.731050014E0,-1.518000126E0,1.251195049E1
2.901343782E1,7.120500207E-1,-2.172000170E0,1.210500050E1
2.903343782E1,8.295000345E-2,-2.212949991E0,1.188405037E1
2.905343782E1,-4.309500158E-1,-2.244000196E0,1.156800079E1
2.907343782E1,-7.710000277E-1,-2.110050201E0,1.097205067E1
2.909343782E1,-1.200000048E0,-1.945050120E0,1.036905003E1
2.911343782E1,-1.585050106E0,-1.630950093E0,1.038495064E1
2.913343782E1,-1.474950075E0,-1.296000004E0,9.961950302E0
2.915343782E1,-1.285950065E0,-9.220500588E-1,9.406050682E0
2.917343782E1,-1.765050054E0,-6.780000329E-1,9.484950066E0
2.919343782E1,-2.658000231E0,-5.770500302E-1,9.544950485E0
2.921343782E1,-2.779950142E0,-4.549500346E-1,9.187950134E0
2.923343782E1,-3.307050228E0,-2.920500040E-1,8.683050156E0
2.925343782E1,-4.135050297E0,-7.200000435E-2,8.700000763E0
2.927343782E1,-4.209000111E0,-1.500000060E-2,8.122950554E0
2.929343782E1,-4.336050034E0,2.430000156E-1,6.649950504E0
2.931343782E1,-4.565999985E0,1.035000086E0,4.717950344E0
2.933343782E1,-4.495950222E0,1.371000051E0,4.195950031E0
2.935343782E1,-4.425000191E0,1.633950114E0,3.861000299E0
2.937343782E1,-4.765050411E0,1.753950119E0,3.502050161E0
2.939343782E1,-4.413000107E0,1.914000034E0,2.713950157E0
2.941343782E1,-4.075050354E0,2.070000172E0,1.536000013E0
2.943343782E1,-3.799950123E0,2.179949999E0,9.660000205E-1
2.945343782E1,-3.250950098E0,2.268000126E0,7.699500322E-1
2.947343782E1,-2.758050203E0,2.398050070E0,9.195000678E-2
2.949343782E1,-1.948950052E0,2.319000006E0,-1.312050104E0
2.951343782E1,-9.240000248E-1,2.400000095E0,-2.895000219E0
2.953343782E1,-1.840500087E-1,2.730000019E0,-4.328999996E0
2.955343782E1,1.759500057E-1,2.860050201E0,-5.832000256E0
2.957343782E1,5.595000088E-2,2.623050213E0,-6.847950459E0
2.959343782E1,2.505000122E-2,2.488950014E0,-7.294950485E0
2.961343782E1,1.710000038E-1,2.326050043E0,-8.005949974E0
2.963343782E1,6.000000238E-1,2.211000204E0,-8.940000534E0
2.965343782E1,8.389500380E-1,2.239950180E0,-9.481050491E0
2.967343782E1,1.404000044E0,2.424000025E0,-9.028950691E0
2.969343782E1,3.355950117E0,2.452950001E0,-8.581050873E0
2.971343782E1,4.402050018E0,2.922000170E0,-1.096800041E1
2.973343782E1,6.892050266E0,4.888050079E0,-1.951095009E1
2.975343782E1,8.590050697E0,5.362050056E0,-2.044695091E1
2.977343782E1,8.913000107E0,5.476950169E0,-1.900305176E1
2.979343782E1,7.704000473E0,5.122050285E0,-1.712400055E1
2.981343782E1,6.033000469E0,4.291950226E0,-1.452600098E1
2.983343782E1,4.018949986E0,3.658950090E0,-1.180605030E1
2.985343782E1,4.018949986E0,3.658950090E0,-1.180605030E1
2.987343782E1,1.278000116E0,3.123000145E0,-1.032900047E1
2.989343782E1,7.630500197E-1,3.078000069E0,-1.053705025E1
2.991343782E1,2.100000083E-1,2.877000093E0,-9.655950546E0
2.993343782E1,-6.060000062E-1,2.719050169E0,-8.160000801E0
2.995343782E1,-1.621050119E0,2.730000019E0,-7.006050110E0
2.997343782E1,-2.322000027E0,2.865000248E0,-6.687000275E0
2.999343782E1,-2.548050165E0,3.238050222E0,-6.603000164E0
3.001343782E1,-2.524050236E0,3.645000219E0,-6.247050285E0
3.003343782E1,-2.928000212E0,3.580050230E0,-5.176050186E0
3.005343782E1,-3.928950071E0,3.532950163E0,-4.113000393E0
3.007343782E1,-4.666050434E0,3.489000082E0,-3.235050201E0
3.009343782E1,-4.663950443E0,3.750000238E0,-3.109950066E0
3.011343782E1,-4.690050125E0,3.955950260E0,-3.328050137E0
3.013343782E1,-4.912950039E0,3.873000145E0,-2.479950190E0
3.015343782E1,-5.442000389E0,3.513000250E0,-1.245000005E0
3.017343782E1,-5.847000122E0,3.750000238E0,-7.470000386E-1
3.019343782E1,-5.325000286E0,3.736050129E0,-1.175999999E0
3.021343782E1,-5.325000286E0,3.736050129E0,-1.175999999E0
3.023343782E1,-6.253950119E0,3.388950109E0,3.013050079E0
3.025343782E1,-6.747000217E0,3.352950096E0,3.058950186E0
3.027343782E1,-6.514950275E0,3.304950237E0,2.226000071E0
3.029343782E1,-5.776950359E0,3.532950163E0,2.424000025E0
3.031343782E1,-5.509050369E0,3.564000130E0,3.154950142E0
3.033343782E1,-5.698050499E0,3.415050268E0,3.973950148E0
3.035343782E1,-5.842050076E0,3.259950161E0,4.488000393E0
3.037343782E1,-6.049950123E0,3.160950184E0,4.933950424E0
3.039343782E1,-5.598000050E0,3.195000172E0,4.776000023E0
3.041343782E1,-4.887000084E0,3.303000212E0,4.894950390E0
3.043343782E1,-4.530000210E0,3.279000044E0,5.271000385E0
3.045343782E1,-4.300050259E0,3.037050247E0,5.937000275E0
3.047343782E1,-4.030050278E0,2.857050180E0,6.456000328E0
3.049343782E1,-3.748950243E0,2.971950054E0,6.613950253E0
3.051343782E1,-3.591000080E0,2.872050047E0,6.856050491E0
3.053343782E1,-3.630000114E0,2.497950077E0,7.915050507E0
3.055343782E1,-3.622950077E0,2.248950005E0,9.065999985E0
3.057343782E1,-3.205950260E0,2.176950216E0,8.755050659E0
3.059343782E1,-2.509050131E0,1.857000113E0,9.832050323E0
3.061343782E1,-2.638950109E0,1.593000054E0,1.036905003E1
3.063343782E1,-2.658000231E0,1.404000044E0,9.901950836E0
3.065343782E1,-2.092950106E0,1.018950105E0,9.954000473E0
3.067343782E1,-1.444050074E0,6.709500551E-1,1.085205078E1
3.069343782E1,-1.444050074E0,6.709500551E-1,1.085205078E1
3.071343782E1,-1.324050069E0,4.459500313E-1,1.122300053E1
3.073343782E1,-1.075049996E0,1.420500129E-1,1.143705082E1
3.075343782E1,-1.111050010E0,3.510000110E-1,1.180005074E1
3.077343782E1,-4.930500090E-1,4.609500170E-1,1.186500072E1
3.079343782E1,2.310000062E-1,4.180500209E-1,1.148700047E1
3.081343782E1,9.060000181E-1,1.420500129E-1,1.140105057E1
3.083343782E1,1.042950034E0,-2.449500114E-1,1.160895061E1
3.085343782E1,9.660000205E-1,-3.550500274E-1,1.194900036E1
3.087343782E1,1.261050105E0,-9.900000691E-2,1.135800076E1
3.089343782E1,2.041050196E0,4.369500279E-1,1.061805058E1
3.091343782E1,2.965050220E0,9.900000691E-1,1.065600014E1
3.093343782E1,3.304950237E0,9.709500670E-1,1.019595051E1
3.095343782E1,3.193050146E0,4.180500209E-1,1.056300068E1
3.097343782E1,3.423000097E0,3.000000119E-1,1.159005070E1
3.099343782E1,4.072050095E0,9.280500412E-1,1.153005028E1
3.101343782E1,6.679050446E0,2.161050081E0,8.881950378E0
3.103343782E1,6.801000118E0,1.560000062E0,8.383950233E0
3.105343782E1,6.394050121E0,4.180500209E-1,8.998950005E0
3.107343782E1,5.920050144E0,-4.579500258E-1,1.009095001E1
3.109343782E1,6.112050056E0,-8.220000267E-1,1.042905045E1
3.111343782E1,6.880050182E0,-9.370500445E-1,1.001205063E1
3.113343782E1,7.551000595E0,-1.023000002E0,9.358050346E0
3.115343782E1,7.789950371E0,-1.024950027E0,8.841000557E0
3.117343782E1,7.573950291E0,-1.195050001E0,8.578050613E0
3.119343782E1,7.492950439E0,-1.333950043E0,8.901000023E0
3.121343782E1,7.621950150E0,-1.461000085E0,9.406050682E0
3.123343782E1,7.732950211E0,-1.513950109E0,9.555000305E0
3.125343782E1,7.783050537E0,-1.533000112E0,9.013950348E0
3.127343782E1,7.708950520E0,-1.321950078E0,8.350049973E0
3.129343782E1,8.053050041E0,-1.315050006E0,7.684950352E0
3.131343782E1,8.065050125E0,-1.162050009E0,7.179000378E0
3.133343782E1,8.053050041E0,-1.039950013E0,6.832050323E0
3.135343782E1,8.211000443E0,-8.220000267E-1,6.559050083E0
3.137343782E1,8.500950813E0,-6.949500442E-1,6.133050442E0
3.139343782E1,8.913000107E0,-6.060000062E-1,5.745000362E0
3.141343782E1,9.136050224E0,-5.509500504E-1,5.506050110E0
3.143343782E1,9.234000206E0,-1.440000087E-1,4.891050339E0
3.145343782E1,9.660000801E0,-1.200000048E-1,4.467000008E0
3.147343782E1,9.720000267E0,-2.730000019E-1,4.111950397E0
3.149343782E1,9.643050194E0,-4.309500158E-1,3.853950262E0
3.151343782E1,9.897000313E0,-4.740000367E-1,3.661950111E0
3.153343782E1,1.005705070E1,-5.299500227E-1,3.547050238E0
3.155343782E1,1.021305084E1,-5.770500302E-1,3.166950226E0
3.157343782E1,1.026105022E1,-5.530500412E-1,2.652000189E0
3.159343782E1,1.002600002E1,-7.399500608E-1,2.784000158E0
3.161343782E1,9.538050652E0,-1.186050057E0,3.789000273E0
3.163343782E1,7.488000393E0,-1.456050038E0,7.716000557E0
3.165343782E1,9.130949974E0,-1.590000033E0,1.051995087E1
3.167343782E1,9.379950523E0,-1.875000119E0,1.170705032E1
3.169343782E1,8.616000175E0,-1.051050067E0,8.723999977E0
3.171343782E1,8.805000305E0,-5.869500041E-1,3.432000160E0
3.173343782E1,9.088050842E0,-4.909500182E-1,1.084050059E0
3.175343782E1,9.531000137E0,-4.120500088E-1,6.409500241E-1
3.177343782E1,1.001205063E1,-6.490500569E-1,1.573950052E0
3.179343782E1,1.008600044E1,-6.469500065E-1,2.685000181E0
3.181343782E1,1.031400013E1,-8.839500546E-1,2.932050228E0
3.183343782E1,1.062705040E1,-9.199500680E-1,2.764050245E0
3.185343782E1,1.011195087E1,-1.207050085E0,3.115950108E0
3.187343782E1,9.588000298E0,-1.315050006E0,3.250050068E0
3.189343782E1,9.613950729E0,-1.327050090E0,3.307950258E0
3.191343782E1,9.957000732E0,-1.317000031E0,3.340950251E0
3.193343782E1,1.023705006E1,-1.341000080E0,3.588000059E0
3.195343782E1,9.910950661E0,-1.537950039E0,4.144050121E0
3.197343782E1,9.499950409E0,-1.794000030E0,4.905000210E0
3.199343782E1,9.829950333E0,-1.899000049E0,5.386050224E0
3.201343782E1,1.052895069E1,-1.791000128E0,5.836050510E0
3.203343782E1,1.082400036E1,-1.672050118E0,6.052050114E0
3.205343782E1,1.035405064E1,-1.569000125E0,6.298050404E0
3.207343782E1,9.765000343E0,-1.578000069E0,6.162000179E0
3.209343782E1,9.456000328E0,-1.441950083E0,6.070950508E0
3.211343782E1,9.415950775E0,-1.164000034E0,6.021000385E0
3.213343782E1,9.646050453E0,-9.340500236E-1,6.468000412E0
3.215343782E1,9.439949989E0,-9.490500689E-1,7.141050339E0
3.217343782E1,8.781000137E0,-9.510000348E-1,8.058000565E0
3.219343782E1,8.484000206E0,-1.141950011E0,8.656949997E0
3.221343782E1,8.491950035E0,-1.175999999E0,8.832000732E0
3.223343782E1,8.416950226E0,-1.252950072E0,8.899050713E0
3.225343782E1,8.170949936E0,-1.281000018E0,8.902950287E0
3.227343782E1,7.809000492E0,-1.248000026E0,9.090000153E0
3.229343782E1,7.134000301E0,-6.469500065E-1,9.483000755E0
3.231343782E1,7.183950424E0,-2.590500116E-1,9.777000427E0
3.233343782E1,6.850950241E0,-1.249500066E-1,1.005705070E1
3.235343782E1,6.507000446E0,-4.095000029E-2,1.042605019E1
3.237343782E1,6.114000320E0,-2.639999986E-1,1.088595009E1
3.239343782E1,5.455950260E0,-3.280500174E-1,1.099395084E1
3.241343782E1,4.894950390E0,-1.579500139E-1,1.120905018E1
3.243343782E1,4.845000267E0,-2.400000021E-2,1.160205078E1
3.245343782E1,4.561950207E0,7.950000465E-3,1.168605042E1
3.247343782E1,4.099950314E0,-6.495000422E-2,1.158300018E1
3.249343782E1,3.652950287E0,-2.130000144E-1,1.145100021E1
3.251343782E1,3.334050179E0,-2.830500007E-1,1.147200012E1
3.253343782E1,2.788050175E0,-3.240000010E-1,1.169805050E1
3.255343782E1,2.175000191E0,-3.019500077E-1,1.177905083E1
3.257343782E1,1.612950087E0,-1.800000072E-1,1.157505035E1
3.259343782E1,1.357050061E0,-1.270500124E-1,1.165200043E1
3.261343782E1,1.291950107E0,-1.080000028E-1,1.145805073E1
3.263343782E1,1.000050068E0,8.505000174E-2,1.142505074E1
3.265343782E1,8.490000367E-1,-8.700000495E-2,1.188195038E1
3.267343782E1,1.930500120E-1,-3.790500164E-1,1.225995064E1
3.269343782E1,-6.130500436E-1,-6.109500527E-1,1.213605022E1
3.271343782E1,-6.130500436E-1,-6.109500527E-1,1.213605022E1
3.273343782E1,-1.891950130E0,-1.075049996E0,1.159005070E1
3.275343782E1,-3.169950247E0,-1.329000115E0,1.288305092E1
3.277343782E1,-4.048950195E0,-1.723950028E0,1.382595062E1
3.279343782E1,-4.156949997E0,-2.031000137E0,1.312695026E1
3.281343782E1,-3.874050140E0,-1.960950136E0,1.125495052E1
3.283343782E1,-4.044000149E0,-1.494000077E0,9.207000732E0
3.285343782E1,-4.341000080E0,-9.100500345E-1,7.852050304E0
3.287343782E1,-4.345950127E0,-3.760500252E-1,6.816000462E0
3.289343782E1,-4.015050411E0,-1.500000060E-2,5.680950165E0
3.291343782E1,-3.522000074E0,5.010000467E-1,4.407000065E0
3.293343782E1,-2.392050028E0,1.087950110E0,2.854950190E0
3.295343782E1,-1.108950019E0,2.055000067E0,1.105050087E0
3.297343782E1,2.170500159E-1,2.623050213E0,-9.940500259E-1
3.299343782E1,5.040000081E-1,2.833050251E0,-2.557050228E0
3.301343782E1,-1.009500027E-1,3.039000034E0,-3.567000151E0
3.303343782E1,-3.259500265E-1,3.082050085E0,-3.393000126E0
3.305343782E1,-1.920000017E-1,2.970000029E0,-3.594000101E0
3.307343782E1,1.140000075E-1,3.138000250E0,-4.698000431E0
3.309343782E1,6.979500055E-1,3.319050074E0,-6.354000092E0
3.311343782E1,5.329500437E-1,2.836050034E0,-7.639950275E0
3.313343782E1,5.329500437E-1,2.836050034E0,-7.639950275E0
3.315343782E1,5.329500437E-1,2.836050034E0,-7.639950275E0
3.317343782E1,-2.350500077E-1,1.006950021E0,-5.329950333E0
3.319343782E1,1.857000113E0,1.645950079E0,-8.530950546E0
3.321343782E1,4.432950020E0,2.677950144E0,-1.270605087E1
3.323343782E1,7.062000275E0,3.766950130E0,-1.633395004E1
3.325343782E1,8.350049973E0,4.888050079E0,-1.871100044E1
3.327343782E1,8.685000420E0,5.946000099E0,-1.957305145E1
3.329343782E1,8.546999931E0,6.513000488E0,-1.888905144E1
3.331343782E1,7.752000332E0,6.114000320E0,-1.683405113E1
3.333343782E1,6.186000347E0,4.974000454E0,-1.411005020E1
3.335343782E1,4.291950226E0,4.021049976E0,-1.164600086E1
3.337343782E1,2.446050167E0,3.516000271E0,-9.547950745E0
3.339343782E1,1.162950039E0,3.334050179E0,-8.782050133E0
3.341343782E1,1.830000132E-1,3.340950251E0,-9.093000412E0
3.343343782E1,-2.509500086E-1,3.424950123E0,-9.562950134E0
3.345343782E1,-3.930000067E-1,3.636000156E0,-9.129000664E0
3.347343782E1,-5.910000205E-1,3.810000181E0,-8.761050224E0
3.349343782E1,-1.024950027E0,3.892050266E0,-8.655000687E0
3.351343782E1,-1.554000020E0,3.901050091E0,-8.257950783E0
3.353343782E1,-2.029950142E0,3.946950197E0,-7.425000191E0
3.355343782E1,-2.803950071E0,4.354050159E0,-6.771000385E0
3.357343782E1,-2.884950161E0,4.411050320E0,-6.046050072E0
3.359343782E1,-3.156000137E0,4.549950123E0,-4.987050056E0
3.361343782E1,-3.919050217E0,4.426050186E0,-4.216050148E0
3.363343782E1,-4.474950314E0,4.351050377E0,-3.406950235E0
3.365343782E1,-4.903950214E0,4.087950230E0,-2.703000069E0
3.367343782E1,-4.669050217E0,3.994950294E0,-2.100000143E0
3.369343782E1,-4.875000000E0,4.267950058E0,-1.599000096E0
3.371343782E1,-5.346000195E0,4.251000404E0,-1.282950044E0
3.373343782E1,-5.548050404E0,4.014000416E0,-4.189500213E-1
3.375343782E1,-5.481000423E0,3.729000092E0,7.680000067E-1
3.377343782E1,-5.325000286E0,3.748050213E0,9.280500412E-1
3.379343782E1,-5.302950382E0,3.748050213E0,1.078950047E0
3.381343782E1,-5.643000126E0,3.532950163E0,2.377050161E0
3.383343782E1,-6.283050060E0,3.250050068E0,3.669000149E0
3.385343782E1,-6.658950329E0,3.220950127E0,3.649950266E0
3.387343782E1,-6.307050228E0,3.286050081E0,2.956050158E0
3.389343782E1,-5.868000507E0,3.355050087E0,3.685950279E0
3.391343782E1,-6.187050343E0,3.420000076E0,4.792050362E0
3.393343782E1,-6.613050461E0,3.403050184E0,4.936050415E0
3.395343782E1,-6.661050320E0,3.424950123E0,4.018949986E0
3.397343782E1,-5.907000065E0,3.564000130E0,4.771050453E0
3.399343782E1,-5.872950077E0,3.525000095E0,6.210000515E0
3.401343782E1,-5.362950325E0,3.469950199E0,5.749950409E0
3.403343782E1,-4.693050385E0,3.493950129E0,4.725000381E0
3.405343782E1,-4.393949986E0,3.252000093E0,5.113050461E0
3.407343782E1,-4.164000034E0,2.911950111E0,7.053000450E0
3.409343782E1,-3.987000227E0,2.958000183E0,8.383950233E0
3.411343782E1,-3.352050066E0,2.790000200E0,7.741950512E0
3.413343782E1,-2.665050030E0,2.335050106E0,7.876050472E0
3.415343782E1,-2.646000147E0,2.046000004E0,9.780000687E0
3.417343782E1,-2.730000019E0,2.094000101E0,1.045500088E1
3.419343782E1,-1.927050114E0,2.034000158E0,8.937000275E0
3.421343782E1,-9.430500269E-1,2.062050104E0,8.343000412E0
3.423343782E1,-2.850000262E-1,1.900050044E0,9.708000183E0
3.425343782E1,-2.400000021E-2,1.641000032E0,1.117095089E1
3.427343782E1,3.820500076E-1,1.750950098E0,9.840000153E0
3.429343782E1,1.006950021E0,1.560000062E0,8.488950729E0
3.431343782E1,1.759050131E0,1.332000017E0,9.520950317E0
3.433343782E1,2.282999992E0,1.323000073E0,1.103700066E1
3.435343782E1,2.767050028E0,1.119000077E0,1.164705086E1
3.437343782E1,2.412000179E0,9.949500561E-1,1.166205025E1
3.439343782E1,2.221050024E0,1.147950053E0,1.137705040E1
3.441343782E1,3.562050104E0,1.368000031E0,1.034205055E1
3.443343782E1,4.455000401E0,1.143000007E0,1.036200047E1
3.445343782E1,4.387950420E0,-1.200000010E-2,1.051695061E1
3.447343782E1,3.259950161E0,-6.400500536E-1,1.127595043E1
3.449343782E1,3.316950083E0,-2.130000144E-1,1.223595047E1
3.451343782E1,4.834950447E0,5.830500126E-1,1.238895035E1
3.453343782E1,6.130950451E0,9.990000725E-1,1.123995018E1
3.455343782E1,6.552000523E0,7.530000210E-1,9.861000061E0
3.457343782E1,6.157050133E0,-1.200000048E-1,9.421050072E0
3.459343782E1,5.488950253E0,-5.629500151E-1,9.229050636E0
3.461343782E1,5.379000187E0,-1.609500051E-1,9.032999992E0
3.463343782E1,6.376950264E0,6.300000101E-2,9.409049988E0
3.465343782E1,7.423950195E0,1.830000132E-1,9.643050194E0
3.467343782E1,7.797000408E0,2.689500153E-1,9.528000832E0
3.469343782E1,7.717950344E0,1.210500076E-1,9.370050430E0
3.471343782E1,7.491000175E0,-1.900500059E-1,9.202950478E0
3.473343782E1,7.510050297E0,-3.670500219E-1,8.908050537E0
3.475343782E1,7.929000378E0,-1.920000017E-1,8.599050522E0
3.477343782E1,8.668950081E0,-7.005000114E-2,8.391000748E0
3.479343782E1,9.121050835E0,1.095000096E-2,8.082000732E0
3.481343782E1,8.980050087E0,-1.339500099E-1,7.792050362E0
3.483343782E1,8.980050087E0,-1.339500099E-1,7.792050362E0
3.485343782E1,8.796000481E0,-4.339500070E-1,7.575000286E0
3.487343782E1,8.796000481E0,-4.339500070E-1,7.575000286E0
3.489343782E1,9.468000412E0,-2.280000150E-1,6.544950485E0
3.491343782E1,9.712950706E0,-2.970000207E-1,6.198000431E0
3.493343782E1,9.658050537E0,-2.490000129E-1,5.949000359E0
3.495343782E1,9.787050247E0,-1.270500124E-1,5.436000347E0
3.497343782E1,9.988050461E0,-2.130000144E-1,4.941000462E0
3.499343782E1,1.007895088E1,-6.660000086E-1,4.504950047E0
3.501343782E1,9.471000671E0,-8.550000191E-1,4.249050140E0
3.503343782E1,9.339000702E0,-8.220000267E-1,4.558050156E0
3.505343782E1,9.769950867E0,-9.870000482E-1,4.716000080E0
3.507343782E1,9.784050941E0,-8.980500698E-1,4.693950176E0
3.509343782E1,1.004100037E1,-9.679500461E-1,4.390050411E0
3.511343782E1,1.014600086E1,-1.240950108E0,3.988050222E0
3.513343782E1,9.727050781E0,-1.414950013E0,3.648000240E0
3.515343782E1,9.169050217E0,-1.309950113E0,3.544950247E0
3.517343782E1,9.436950684E0,-1.293000102E0,3.397050142E0
3.519343782E1,9.835050583E0,-1.336050034E0,3.214950085E0
3.521343782E1,9.340950012E0,-1.618950129E0,3.322050095E0
3.523343782E1,8.322000504E0,-1.339050055E0,3.724950075E0
3.525343782E1,8.322000504E0,-1.339050055E0,3.724950075E0
3.527343782E1,8.149050713E0,-9.409500360E-1,7.053000450E0
3.529343782E1,6.970950127E0,-7.350000143E-1,7.960050583E0
3.531343782E1,7.179000378E0,-7.000500560E-1,7.114950180E0
3.533343782E1,7.383000374E0,-6.280500293E-1,5.271000385E0
3.535343782E1,8.185050011E0,-5.850000381E-1,3.930000305E0
3.537343782E1,9.222000122E0,-8.220000267E-1,4.266000271E0
3.539343782E1,9.100049973E0,-1.224000096E0,5.934000492E0
3.541343782E1,8.961000443E0,-1.743000031E0,6.696000099E0
3.543343782E1,8.460000038E0,-1.399050117E0,6.733950138E0
3.545343782E1,9.691050529E0,-1.171050072E0,6.552000523E0
3.547343782E1,1.063395023E1,-9.679500461E-1,6.421050072E0
3.549343782E1,1.048395061E1,-1.015950084E0,6.246000290E0
3.551343782E1,9.910950661E0,-1.132950068E0,6.151950359E0
3.553343782E1,9.652950287E0,-1.106999993E0,6.198000431E0
3.555343782E1,1.007205009E1,-9.679500461E-1,6.262050152E0
3.557343782E1,1.059405041E1,-1.027950048E0,6.655050278E0
3.559343782E1,1.071105003E1,-9.840000272E-1,7.632000446E0
3.561343782E1,1.060095024E1,-1.032000065E0,8.401050568E0
3.563343782E1,1.009995079E1,-1.159050107E0,8.812050819E0
3.565343782E1,9.825000763E0,-1.308000088E0,8.908050537E0
3.567343782E1,9.825000763E0,-1.308000088E0,8.908050537E0
3.569343782E1,9.825000763E0,-1.308000088E0,8.908050537E0
3.571343782E1,9.610050201E0,-1.293000102E0,8.935050011E0
3.573343782E1,8.845950127E0,-1.189950109E0,9.052050591E0
3.575343782E1,8.908050537E0,-9.049500227E-1,9.247950554E0
3.577343782E1,9.195000648E0,-4.860000312E-1,9.733950615E0
3.579343782E1,9.081000328E0,-3.550500274E-1,1.028505039E1
3.581343782E1,8.371950150E0,-3.739500046E-1,1.047900009E1
3.583343782E1,8.371950150E0,-3.739500046E-1,1.047900009E1
3.585343782E1,7.114950180E0,-3.829500079E-1,1.068495083E1
3.587343782E1,6.801000118E0,-1.110000089E-1,1.114005089E1
3.589343782E1,7.009050369E0,1.969500035E-1,1.142205048E1
3.591343782E1,6.813000202E0,3.000000119E-1,1.129995060E1
3.593343782E1,5.992050171E0,4.905000329E-2,1.156095028E1
3.595343782E1,5.149050236E0,-2.370000184E-1,1.187895012E1
3.597343782E1,4.551000118E0,-3.720000088E-1,1.184595013E1
3.599343782E1,4.009050369E0,-3.160500228E-1,1.121595097E1
3.601343782E1,3.483000278E0,1.050000079E-3,1.009305000E1
3.603343782E1,2.653950214E0,2.400000095E-1,9.603000641E0
3.605343782E1,1.693950057E0,3.070500195E-1,1.014600086E1
3.607343782E1,7.680000067E-1,4.249500334E-1,1.024395084E1
3.609343782E1,-6.900000572E-2,8.680500388E-1,1.044495010E1
3.611343782E1,-2.040000111E-1,1.078050017E0,1.060095024E1
3.613343782E1,-5.290500522E-1,1.215000033E0,1.021800041E1
3.615343782E1,-1.366950035E0,1.315050006E0,1.011705017E1
3.617343782E1,-2.278950214E0,1.330050111E0,9.993000031E0
3.619343782E1,-3.070050240E0,1.186050057E0,9.781949997E0
3.621343782E1,-3.699000120E0,1.083000064E0,9.334050179E0
3.623343782E1,-4.288050175E0,1.117050052E0,9.289050102E0
3.625343782E1,-4.288050175E0,1.081050038E0,8.968050003E0
3.627343782E1,-4.318950176E0,1.122000098E0,8.072999954E0
3.629343782E1,-4.834050179E0,1.432950020E0,6.768000126E0
3.631343782E1,-5.346000195E0,1.509000063E0,5.857950211E0
3.633343782E1,-5.950050354E0,1.504950047E0,6.090000153E0
3.635343782E1,-5.866050243E0,1.344000101E0,6.226950169E0
3.637343782E1,-6.052950382E0,1.248000026E0,5.676000118E0
3.639343782E1,-6.211050510E0,1.231950045E0,5.013000011E0
3.641343782E1,-5.842050076E0,1.234050035E0,4.680000305E0
3.643343782E1,-5.482950211E0,1.360950112E0,4.402050018E0
3.645343782E1,-5.476050377E0,1.432950020E0,3.988050222E0
3.647343782E1,-5.311050415E0,1.684050083E0,3.736950159E0
3.649343782E1,-4.056000233E0,1.605000019E0,2.803050041E0
3.651343782E1,-2.836950064E0,1.657950044E0,1.198950052E0
3.653343782E1,-3.420000076E-1,2.376000166E0,-1.618950129E0
3.655343782E1,-3.420000076E-1,2.376000166E0,-1.618950129E0
3.657343782E1,1.962000132E0,3.184950113E0,-5.425050259E0
3.659343782E1,1.885950089E0,3.193050146E0,-7.285950184E0
3.661343782E1,1.297050118E0,2.782950163E0,-7.840950489E0
3.663343782E1,5.209500194E-1,2.046000004E0,-7.372050285E0
3.665343782E1,4.969500303E-1,1.117050052E0,-6.400050163E0
3.667343782E1,1.165050030E0,2.740500271E-1,-6.445050240E0
3.669343782E1,1.645950079E0,3.120000064E-1,-8.758049965E0
3.671343782E1,3.472950220E0,7.339500189E-1,-1.086300087E1
3.673343782E1,5.341050148E0,1.677000046E0,-1.293195057E1
3.675343782E1,7.009050369E0,2.946000099E0,-1.550295067E1
3.677343782E1,8.629950523E0,4.513950348E0,-1.780905151E1
3.679343782E1,9.277050018E0,6.013050079E0,-1.911105156E1
3.681343782E1,8.616000175E0,6.592050076E0,-1.758405113E1
3.683343782E1,7.729950428E0,6.042000294E0,-1.439205074E1
3.685343782E1,6.133050442E0,5.149050236E0,-1.173900032E1
3.687343782E1,4.693950176E0,4.735050201E0,-9.703950882E0
3.689343782E1,3.724050283E0,4.653000355E0,-8.239050865E0
3.691343782E1,2.989050150E0,4.476000309E0,-7.753050327E0
3.693343782E1,2.134950161E0,4.066950321E0,-8.281949997E0
3.695343782E1,1.962000132E0,3.703050137E0,-1.093005085E1
3.697343782E1,2.206950188E0,3.478050232E0,-1.144905090E1
3.699343782E1,1.792050123E0,3.079950094E0,-1.102305031E1
3.701343782E1,7.909500599E-1,2.388000011E0,-1.005795002E1
3.703343782E1,6.405000389E-2,1.777950048E0,-8.773050308E0
3.705343782E1,-7.999500632E-1,1.450050116E0,-7.759950161E0
3.707343782E1,-9.859500527E-1,1.428000093E0,-7.413000584E0
3.709343782E1,-1.171050072E0,1.761000037E0,-6.706050396E0
3.711343782E1,-2.041949987E0,1.693950057E0,-5.494950294E0
3.713343782E1,-2.989950180E0,1.677000046E0,-4.446000099E0
3.715343782E1,-3.277950048E0,1.948050141E0,-4.117949963E0
3.717343782E1,-3.079050064E0,2.223000050E0,-2.935050249E0
3.719343782E1,-2.776950121E0,2.392950058E0,-6.660000086E-1
3.721343782E1,-2.482950211E0,3.027000189E0,6.259500384E-1
3.723343782E1,-2.686050177E0,3.664050102E0,1.500000060E-1
3.725343782E1,-2.767950058E0,3.468000174E0,3.199500144E-1
3.727343782E1,-3.534000158E0,2.862000227E0,2.568000078E0
3.729343782E1,-4.410000324E0,2.866950035E0,5.142000198E0
3.731343782E1,-3.922050238E0,3.370050192E0,5.697000504E0
3.733343782E1,-2.986050129E0,3.643050194E0,4.479000092E0
3.735343782E1,-3.172050238E0,3.055950165E0,4.522050381E0
3.737343782E1,-4.750050068E0,2.379000187E0,8.098950386E0
3.739343782E1,-4.750050068E0,2.379000187E0,8.098950386E0
3.741343782E1,-4.750050068E0,2.379000187E0,8.098950386E0
3.743343782E1,-3.373950243E0,2.356950045E0,8.865000725E0
3.745343782E1,-3.388050079E0,2.230050087E0,8.425050735E0
3.747343782E1,-2.583000183E0,1.866000056E0,7.747050285E0
3.749343782E1,-1.651950121E0,1.291950107E0,9.109050751E0
3.751343782E1,-1.504050016E0,8.800500631E-1,1.131195068E1
3.753343782E1,-1.480050087E0,7.720500231E-1,1.171395016E1
3.755343782E1,-1.105949998E0,4.969500303E-1,1.056495094E1
3.757343782E1,-1.699500084E-1,2.380500138E-1,1.007205009E1
3.759343782E1,9.210000634E-1,2.295000106E-2,1.184100056E1
3.761343782E1,1.312950015E0,-3.330000043E-1,1.412805080E1
3.763343782E1,1.114950061E0,-3.880500197E-1,1.454700089E1
3.765343782E1,1.135950089E0,-3.670500219E-1,1.297095108E1
3.767343782E1,1.989000082E0,-6.010500193E-1,1.200405025E1
3.769343782E1,2.530050039E0,-9.700500369E-1,1.240095043E1
3.771343782E1,2.523000002E0,-1.102050066E0,1.261005020E1
3.773343782E1,2.749950171E0,-7.860000134E-1,1.225500011E1
3.775343782E1,3.586050272E0,-4.650000334E-1,1.208295059E1
3.777343782E1,4.692000389E0,-2.895000204E-2,1.218600082E1
3.779343782E1,5.410050392E0,-8.959500194E-1,1.023000050E1
3.781343782E1,5.332950115E0,-1.408050060E0,1.001400089E1
3.783343782E1,5.071950436E0,-1.389000058E0,1.015800095E1
3.785343782E1,5.842950344E0,-1.092000008E0,1.045200062E1
3.787343782E1,6.901950359E0,-7.260000110E-1,1.026105022E1
3.789343782E1,7.840050220E0,-5.749500394E-1,9.943050385E0
3.791343782E1,7.849950314E0,-6.640500426E-1,9.235950470E0
3.793343782E1,7.567050457E0,-7.740000486E-1,8.518050194E0
3.795343782E1,7.588950157E0,-7.519500256E-1,8.089050293E0
3.797343782E1,8.072999954E0,-4.939500093E-1,7.756950378E0
3.799343782E1,8.689949989E0,-2.850000262E-1,7.519050121E0
3.801343782E1,9.183000565E0,-1.390500069E-1,7.159950256E0
3.803343782E1,9.385050774E0,-1.990500093E-1,6.817950249E0
3.805343782E1,9.327000618E0,-3.210000098E-1,6.648000240E0
3.807343782E1,9.202950478E0,-6.709500551E-1,6.681000233E0
3.809343782E1,9.235950470E0,-9.409500360E-1,6.919050217E0
3.811343782E1,9.567000389E0,-1.059000015E0,7.057050228E0
3.813343782E1,1.024905014E1,-1.279050112E0,7.014000416E0
3.815343782E1,1.052400017E1,-1.566000104E0,6.907050133E0
3.817343782E1,1.006200027E1,-1.651950121E0,6.777000427E0
3.819343782E1,1.009995079E1,-1.578000069E0,6.940050125E0
3.821343782E1,1.045500088E1,-1.365000010E0,6.861000538E0
3.823343782E1,1.045500088E1,-1.365000010E0,6.861000538E0
3.825343782E1,1.045500088E1,-1.365000010E0,6.861000538E0
3.827343782E1,9.930000305E0,-1.413000107E0,4.237050056E0
3.829343782E1,9.813000679E0,-1.156949997E0,3.787050247E0
3.831343782E1,9.946950912E0,-7.980000377E-1,3.466050148E0
3.833343782E1,9.703050613E0,-6.090000272E-1,3.090000153E0
3.835343782E1,9.022950172E0,-6.060000062E-1,3.025050163E0
3.837343782E1,8.266050339E0,-3.810000122E-1,3.712950230E0
3.839343782E1,7.689000130E0,-1.009500027E-1,5.116050243E0
3.841343782E1,6.874950409E0,-1.152000070E0,9.258000374E0
3.843343782E1,6.205050468E0,-1.588050127E0,1.404900074E1
3.845343782E1,6.954000473E0,-2.356050014E0,1.433805084E1
3.847343782E1,7.203000546E0,-1.498950124E0,1.008900070E1
3.849343782E1,8.305050850E0,-6.589500308E-1,6.708000183E0
3.851343782E1,1.014600086E1,-7.905000448E-2,5.214000225E0
3.853343782E1,1.094595051E1,-4.410000145E-1,5.403000355E0
3.855343782E1,9.409049988E0,-1.470000029E0,6.399000168E0
3.857343782E1,7.654050350E0,-1.177950025E0,6.637950420E0
3.859343782E1,1.060995007E1,-7.789500356E-1,7.266000271E0
3.861343782E1,1.258305073E1,-4.800000042E-2,7.753950596E0
3.863343782E1,1.191105080E1,-8.980500698E-1,6.399000168E0
3.865343782E1,9.964050293E0,-1.822050095E0,6.202950478E0
3.867343782E1,9.877950668E0,-1.801050067E0,7.372950554E0
3.869343782E1,1.033995056E1,-1.545000076E0,8.674050331E0
3.871343782E1,1.078500080E1,-1.504050016E0,9.163949966E0
3.873343782E1,1.066095066E1,-1.321950078E0,9.082950592E0
3.875343782E1,1.014405060E1,-1.345950007E0,8.893950462E0
3.877343782E1,9.649950027E0,-1.272000074E0,8.946000099E0
3.879343782E1,9.444000244E0,-1.104000092E0,9.306000710E0
3.881343782E1,9.382050514E0,-9.960000515E-1,9.921000481E0
3.883343782E1,9.121050835E0,-8.220000267E-1,1.056000042E1
3.885343782E1,9.090000153E0,-6.520500183E-1,1.157805061E1
3.887343782E1,8.809950829E0,-7.879500389E-1,1.230600071E1
3.889343782E1,7.984050274E0,-8.550000191E-1,1.234200096E1
3.891343782E1,7.596000195E0,-5.179499984E-1,1.209495068E1
3.893343782E1,7.945950508E0,2.449500114E-1,1.222905064E1
3.895343782E1,8.536950111E0,7.480500340E-1,1.285395050E1
3.897343782E1,7.855050564E0,7.500000596E-1,1.267395020E1
3.899343782E1,6.574050426E0,1.879500151E-1,1.158000088E1
3.901343782E1,5.038950443E0,0.000000000E0,1.111305046E1
3.903343782E1,4.036050320E0,-2.299500108E-1,1.133595085E1
3.905343782E1,3.145050049E0,-4.840500355E-1,1.198500061E1
3.907343782E1,2.017050028E0,-8.860500455E-1,1.202595043E1
3.909343782E1,1.653000116E0,-7.399500608E-1,1.179300022E1
3.911343782E1,8.350500464E-1,-4.189500213E-1,1.145295048E1
3.913343782E1,2.929500043E-1,-3.195000067E-2,1.146000099E1
3.915343782E1,9.495000541E-2,1.095000096E-2,1.113705063E1
3.917343782E1,-2.830500007E-1,8.505000174E-2,1.060305023E1
3.919343782E1,-8.599500656E-1,4.200000316E-2,1.018200016E1
3.921343782E1,-1.744950056E0,2.505000122E-2,9.973950386E0
3.923343782E1,-2.635950089E0,3.820500076E-1,1.019205093E1
3.925343782E1,-2.599950075E0,6.070500016E-1,9.282000542E0
3.927343782E1,-2.595000029E0,8.100000620E-1,7.539000511E0
3.929343782E1,-2.848950148E0,1.074000001E0,7.026000500E0
3.931343782E1,-3.036000252E0,1.380000114E0,7.572000504E0
3.933343782E1,-3.579000235E0,1.180950046E0,8.227950096E0
3.935343782E1,-3.879000187E0,1.219950080E0,8.725950241E0
3.937343782E1,-3.145950079E0,1.141050100E0,7.275000572E0
3.939343782E1,-2.416050196E0,1.231950045E0,5.020050049E0
3.941343782E1,-2.779950142E0,1.368000031E0,3.910950184E0
3.943343782E1,-3.262950182E0,9.559500217E-1,4.014000416E0
3.945343782E1,-2.587950230E0,7.459500432E-1,3.652950287E0
3.947343782E1,-1.120950103E0,9.540000558E-1,1.158000112E0
3.949343782E1,7.120500207E-1,1.927950144E0,-4.462950230E0
3.951343782E1,8.590500355E-1,2.107950211E0,-5.527950287E0
3.953343782E1,7.630500197E-1,2.218050003E0,-5.488050461E0
3.955343782E1,8.629500270E-1,2.268000126E0,-5.445000172E0
3.957343782E1,2.670000196E-1,1.870950103E0,-6.948000431E0
3.959343782E1,-7.060500383E-1,1.359000087E0,-9.079050064E0
3.961343782E1,-2.730000019E-1,1.573950052E0,-9.702000618E0
3.963343782E1,7.170000076E-1,1.741950035E0,-9.594000816E0
3.965343782E1,1.648950100E0,2.011950016E0,-9.996000290E0
3.967343782E1,2.901000023E0,2.551050186E0,-1.314900017E1
3.969343782E1,4.427999973E0,3.331050158E0,-1.763400078E1
3.971343782E1,5.590050220E0,4.071000099E0,-2.176395035E1
3.973343782E1,6.367950439E0,4.572000027E0,-2.268300056E1
3.975343782E1,5.968050480E0,4.384950161E0,-2.050200081E1
3.977343782E1,4.066950321E0,3.643050194E0,-1.713105011E1
3.979343782E1,2.371950150E0,2.500950098E0,-1.357800102E1
3.981343782E1,7.410000563E-1,1.866000056E0,-1.108800030E1
3.983343782E1,-5.029500127E-1,1.540950060E0,-1.022595024E1
3.985343782E1,-1.249950051E0,1.471050024E0,-1.020195007E1
3.987343782E1,-1.461000085E0,1.497000098E0,-9.601050377E0
3.989343782E1,-1.756950140E0,1.687050104E0,-8.062050819E0
3.991343782E1,-2.647950172E0,2.533950090E0,-4.723950386E0
3.993343782E1,-2.476050138E0,3.051000118E0,-5.061000347E0
3.995343782E1,-2.719950199E0,3.300000191E0,-4.590000153E0
3.997343782E1,-2.719950199E0,3.300000191E0,-4.590000153E0
3.999343782E1,-3.742050171E0,3.460950136E0,-9.550500512E-1
4.001343782E1,-3.759000063E0,3.445950270E0,-1.092000008E0
4.003343782E1,-3.799950123E0,3.505950212E0,-2.179500163E-1
4.005343782E1,-4.342950344E0,3.652050257E0,9.739500284E-1
4.007343782E1,-4.554000378E0,3.991950274E0,1.213050008E0
4.009343782E1,-4.128000259E0,4.102050304E0,1.431000113E0
4.011343782E1,-4.137000084E0,4.192950249E0,2.022000074E0
4.013343782E1,-4.564050198E0,4.495050430E0,2.629950047E0
4.015343782E1,-4.671000004E0,4.608000278E0,3.070950031E0
4.017343782E1,-4.108950138E0,4.525950432E0,4.330049992E0
4.019343782E1,-4.249950409E0,4.569000244E0,5.749950409E0
4.021343782E1,-4.825050354E0,4.849050045E0,5.854950428E0
4.023343782E1,-4.900950432E0,4.822950363E0,5.443950176E0
4.025343782E1,-4.666050434E0,4.966950417E0,6.571050167E0
4.027343782E1,-4.044000149E0,5.323950291E0,8.392950058E0
4.029343782E1,-3.828000069E0,5.367000103E0,9.550050735E0
4.031343782E1,-4.552050114E0,5.130000114E0,8.932050705E0
4.033343782E1,-4.831950188E0,5.209050179E0,8.463000298E0
4.035343782E1,-2.823000193E0,5.773950100E0,1.048605061E1
4.037343782E1,-2.473050117E0,5.746950150E0,1.011705017E1
4.039343782E1,-2.473050117E0,5.746950150E0,1.011705017E1
4.041343782E1,-3.547950268E0,5.083950043E0,8.104050636E0
4.043343782E1,-2.979000092E0,5.163000107E0,8.817000389E0
4.045343782E1,-2.073000193E0,5.212950230E0,9.172050476E0
4.047343782E1,-1.264050007E0,5.014950275E0,8.484000206E0
4.049343782E1,-6.900000572E-1,4.693950176E0,7.723050594E0
4.051343782E1,-5.650500059E-1,4.162050247E0,7.764000416E0
4.053343782E1,-7.609500289E-1,3.814950228E0,8.178000450E0
4.055343782E1,-4.650000334E-1,3.774000168E0,8.736000061E0
4.057343782E1,4.249500334E-1,3.636000156E0,9.600000381E0
4.059343782E1,1.146000028E0,3.387000084E0,9.433050156E0
4.061343782E1,1.251000047E0,2.769000053E0,8.676000595E0
4.063343782E1,1.126950026E0,2.529000044E0,8.245050430E0
4.065343782E1,1.665000081E0,2.319000006E0,8.668950081E0
4.067343782E1,2.235000134E0,1.987950087E0,9.933000565E0
4.069343782E1,2.467050076E0,1.435050011E0,1.064595032E1
4.071343782E1,2.178000212E0,1.033050060E0,1.057905006E1
4.073343782E1,2.331000090E0,9.300000668E-1,1.076595020E1
4.075343782E1,3.025050163E0,9.520500302E-1,1.113705063E1
4.077343782E1,4.009050369E0,9.469500184E-1,1.208805084E1
4.079343782E1,4.689000130E0,7.939500213E-1,1.220700073E1
4.081343782E1,4.351950169E0,4.489500225E-1,1.131405067E1
4.083343782E1,3.691050291E0,2.959500253E-1,1.176495075E1
4.085343782E1,4.033050060E0,-9.105000645E-2,1.281105042E1
4.087343782E1,3.838950157E0,-7.200000435E-2,1.372305107E1
4.089343782E1,3.315000057E0,1.330500096E-1,1.412805080E1
4.091343782E1,2.917950153E0,5.560500026E-1,1.423500061E1
4.093343782E1,2.946000099E0,8.370000124E-1,1.490100098E1
4.095343782E1,2.893950224E0,1.006950021E0,1.620105171E1
4.097343782E1,2.554050207E0,1.134000063E0,1.693095016E1
4.099343782E1,2.080049992E0,1.267950058E0,1.640895081E1
4.101343782E1,1.552950025E0,1.417950034E0,1.535595036E1
4.103343782E1,1.438050032E0,1.557000041E0,1.466595078E1
4.105343782E1,1.546050072E0,1.560000062E0,1.440495110E1
4.107343782E1,1.594050050E0,1.584000111E0,1.447500038E1
4.109343782E1,1.657950044E0,1.524000049E0,1.432905102E1
4.111343782E1,1.663050056E0,1.323000073E0,1.387905025E1
4.113343782E1,1.588950038E0,1.191000104E0,1.339500046E1
4.115343782E1,1.807050109E0,1.054050088E0,1.287300014E1
4.117343782E1,2.083950043E0,9.520500302E-1,1.241100025E1
4.119343782E1,2.209050179E0,8.370000124E-1,1.148400021E1
4.121343782E1,2.146950006E0,7.099500299E-1,1.118505096E1
4.123343782E1,2.101050138E0,5.950500369E-1,1.090500069E1
4.125343782E1,2.259000063E0,5.329500437E-1,1.033800030E1
4.127343782E1,2.290050030E0,6.589500308E-1,9.901950836E0
4.129343782E1,2.365050077E0,9.010500312E-1,9.835050583E0
4.131343782E1,2.475000143E0,1.123950005E0,9.361050606E0
4.133343782E1,2.221050024E0,1.351050019E0,8.740950584E0
4.135343782E1,1.858950138E0,1.453950047E0,8.347949982E0
4.137343782E1,1.821000099E0,1.770000100E0,8.049000740E0
4.139343782E1,1.759050131E0,2.215950012E0,7.435950279E0
4.141343782E1,1.789950132E0,2.680050135E0,6.775050163E0
4.143343782E1,1.897950053E0,3.169050217E0,6.511050224E0
4.145343782E1,1.941000104E0,3.564000130E0,6.102000237E0
4.147343782E1,1.687050104E0,3.853050232E0,5.937000275E0
4.149343782E1,1.641000032E0,3.982950211E0,6.021000385E0
4.151343782E1,1.849950075E0,4.287000179E0,6.313050270E0
4.153343782E1,2.089050055E0,4.579050064E0,6.588000298E0
4.155343782E1,2.213999987E0,4.864050388E0,6.850950241E0
4.157343782E1,2.130000114E0,5.034000397E0,6.693000317E0
4.159343782E1,1.996050119E0,5.283000469E0,6.331950188E0
4.161343782E1,2.458050013E0,5.733000278E0,6.604950428E0
4.163343782E1,2.377050161E0,6.243000507E0,6.301050186E0
4.165343782E1,2.626050234E0,5.989050388E0,6.475950241E0
4.167343782E1,2.626050234E0,5.989050388E0,6.475950241E0
