"Time (s)","Gyroscope x (rad/s)","Gyroscope y (rad/s)","Gyroscope z (rad/s)"
2.388675500E-2,3.561250120E-2,4.331250116E-2,-2.243999988E-1
4.298626900E-2,1.161874980E-1,-3.492499888E-2,-2.902624905E-1
4.776119800E-2,1.394249946E-1,-2.392499894E-2,-3.220250010E-1
5.253719800E-2,1.626625061E-1,-4.399999976E-3,-3.452624977E-1
7.253719800E-2,1.956624985E-1,1.311749965E-1,-4.014999866E-1
9.253719800E-2,1.931875050E-1,7.012499869E-2,-5.212625265E-1
1.125371980E-1,1.381874979E-1,-9.212499484E-3,-5.993624926E-1
1.325371980E-1,8.318749815E-2,-8.016250283E-2,-6.335999966E-1
1.525371980E-1,1.064250022E-1,-1.277374923E-1,-6.226000190E-1
1.725371980E-1,2.359499931E-1,-1.021625027E-1,-7.276499867E-1
1.925371980E-1,2.750000060E-1,-7.150000334E-2,-7.936499715E-1
2.125371980E-1,2.591874897E-1,-4.963750020E-2,-7.863624692E-1
2.325371980E-1,2.457125038E-1,-3.368749842E-2,-7.178875208E-1
2.525371980E-1,2.199999988E-1,2.859999985E-2,-6.335999966E-1
2.725371980E-1,2.139499933E-1,-2.021249942E-2,-5.627874732E-1
2.925371980E-1,2.506625056E-1,-1.277374923E-1,-5.102624893E-1
3.125371980E-1,2.419999987E-1,-2.182125002E-1,-4.809750021E-1
3.325371980E-1,1.211374998E-1,-4.673624933E-1,-5.065500140E-1
3.525371980E-1,-1.219625026E-1,-5.088874698E-1,-6.727874875E-1
3.725371980E-1,-2.894375026E-1,-6.078875065E-1,-5.725499988E-1
3.925371980E-1,-2.551999986E-1,-6.041749716E-1,-6.665999889E-1
4.125371980E-1,-2.099625021E-1,-4.637874961E-1,-8.071249723E-1
4.325371980E-1,-1.867250055E-1,-1.802625060E-1,-7.594124675E-1
4.525371980E-1,-1.208624989E-1,1.935999990E-1,-8.633624911E-1
4.725371980E-1,1.223749965E-1,5.759875178E-1,-8.608874679E-1
4.925371980E-1,4.522374868E-1,7.713750005E-1,-9.244124889E-1
5.125371980E-1,7.893875241E-1,5.527499914E-1,-6.568375230E-1
5.325371980E-1,7.991499901E-1,5.099874735E-1,-8.205999732E-1
5.525371980E-1,6.561499834E-1,2.594625056E-1,-7.875999808E-1
5.725371980E-1,4.985750020E-1,3.024999984E-3,-6.445999742E-1
5.925371980E-1,6.268625259E-1,-2.633124888E-1,-1.028224945E0
6.125371980E-1,5.695250034E-1,-2.169750035E-1,-1.250562549E0
6.325371980E-1,2.334749997E-1,-4.747875035E-1,-1.180987477E0
6.525371980E-1,1.718750037E-2,-3.695999980E-1,-1.039224982E0
6.725371980E-1,-2.914999984E-2,-3.477374911E-1,-1.106462479E0
6.925371980E-1,-2.551999986E-1,-3.415499926E-1,-1.756425023E0
7.125371980E-1,-6.901124716E-1,-5.651249886E-1,-1.801524997E0
7.325371980E-1,-7.743999958E-1,-6.958875060E-1,-1.529137492E0
7.525371980E-1,-5.471125245E-1,-1.233374953E0,-1.194462538E0
7.725371980E-1,-2.356749922E-1,-1.748999953E0,-8.168874979E-1
7.925371980E-1,-4.800125062E-1,-1.448424935E0,-6.715499759E-1
8.125371980E-1,-1.093262553E0,-1.039224982E0,-7.473124862E-1
8.325371980E-1,-1.165312529E0,-1.362900019E0,-6.433625221E-1
8.525371980E-1,-1.430412531E0,-1.970100045E0,-5.895999670E-1
8.725371980E-1,-2.498237371E0,-2.065387487E0,-5.565999746E-1
8.925371980E-1,-3.469537497E0,-1.863812447E0,-2.927374840E-1
9.125371980E-1,-3.171437502E0,-2.539487600E0,9.693749994E-2
9.325371980E-1,-2.615525007E0,-3.399549961E0,-3.011249937E-2
9.525371980E-1,-2.824387550E0,-3.966325045E0,-3.562625051E-1
9.725371980E-1,-3.324062586E0,-4.091037273E0,-4.064500034E-1
9.925371980E-1,-3.379062414E0,-4.343900204E0,-3.111625016E-1
1.012537198E0,-3.410825014E0,-4.359712601E0,-2.426874936E-1
1.032537198E0,-4.057212353E0,-4.178899765E0,-2.732124925E-1
1.052537198E0,-4.553174973E0,-3.945562363E0,-4.039750099E-1
1.072537198E0,-4.416362286E0,-3.960274935E0,-6.848874688E-1
1.092537198E0,-3.773687363E0,-3.933325052E0,-7.374125123E-1
1.112537198E0,-2.698575020E0,-3.829512596E0,-5.102624893E-1
1.132537198E0,-1.733462453E0,-3.673175097E0,-2.756874859E-1
1.152537198E0,-1.436599970E0,-3.323787451E0,-6.311249733E-2
1.172537198E0,-1.050500035E0,-2.905925035E0,2.949374914E-1
1.192537198E0,-4.787749946E-1,-2.732399940E0,6.308500171E-1
1.212537198E0,6.737499684E-2,-2.566299915E0,8.164749742E-1
1.232537198E0,5.010499954E-1,-1.946862459E0,8.373749852E-1
1.252537198E0,5.572875142E-1,-1.420374990E0,7.603750229E-1
1.272537198E0,4.142875075E-1,-1.069749951E0,6.968500018E-1
1.292537198E0,1.651374996E-1,-8.277499676E-1,6.443250179E-1
1.312537198E0,-1.024374962E-1,-6.506500244E-1,5.330874920E-1
1.332537198E0,-4.067249894E-1,-5.028374791E-1,2.802250087E-1
1.352537198E0,-6.473500133E-1,-3.207874894E-1,-1.058750041E-2
1.372537198E0,-7.964000106E-1,-1.522125006E-1,-2.902624905E-1
1.392537198E0,-8.623999953E-1,-1.656875014E-1,-4.613125026E-1
1.412537198E0,-7.731624842E-1,-3.049750030E-1,-5.138375163E-1
1.432537198E0,-5.570124984E-1,-2.927374840E-1,-4.992625117E-1
1.452537198E0,-3.027749956E-1,-9.844999760E-2,-4.503124952E-1
1.472537198E0,-1.964875013E-1,1.410750002E-1,-4.295499921E-1
1.492537198E0,-4.885374904E-1,5.148000121E-1,-5.370749831E-1
1.512537198E0,-8.978750110E-1,8.556625247E-1,-5.688375235E-1
1.532537198E0,-1.088449955E0,1.071949959E0,-4.137375057E-1
1.552537198E0,-8.721625209E-1,1.381049991E0,-2.707374990E-1
1.572537198E0,-4.727250040E-1,1.619337440E0,-1.766874939E-1
1.592537198E0,1.199000031E-1,1.955250025E0,-1.339250058E-1
1.612537198E0,7.856749892E-1,2.346162558E0,-1.436875015E-1
1.632537198E0,1.372112513E0,2.715212584E0,-9.844999760E-2
1.652537198E0,1.716687441E0,3.355274916E0,-1.143999994E-1
1.672537198E0,1.769212484E0,3.999187469E0,-2.034999989E-2
1.692537198E0,1.774024963E0,4.684487343E0,-1.539999992E-2
1.712537198E0,1.800974965E0,5.229400158E0,-7.535000145E-2
1.732537198E0,1.858312488E0,5.624024868E0,-9.349999949E-3
1.752537198E0,2.257887602E0,6.121224880E0,-2.169750035E-1
1.772537198E0,2.592562437E0,6.308225155E0,-6.470749974E-1
1.792537198E0,2.499749899E0,6.469512463E0,-7.473124862E-1
1.812537198E0,2.235887527E0,6.441325188E0,-4.014999866E-1
1.832537198E0,1.939025044E0,6.297224998E0,-2.256374955E-1
1.852537198E0,1.753262520E0,6.247174740E0,-5.582499877E-2
1.872537198E0,1.421062469E0,6.000362396E0,3.437500000E-1
1.892537198E0,1.099725008E0,5.746262550E0,6.833750010E-1
1.912537198E0,1.126537442E0,5.776787281E0,1.029049993E0
1.932537198E0,1.544399977E0,5.668025017E0,1.476199985E0
1.952537198E0,1.836312532E0,5.361400127E0,1.757249951E0
1.972537198E0,1.363587499E0,5.411449909E0,1.801249981E0
1.992537198E0,9.946749806E-1,5.463974953E0,1.675437450E0
2.012537198E0,7.001500130E-1,5.412687302E0,1.456674933E0
2.032537198E0,8.126249909E-1,5.246587276E0,1.716962457E0
2.052537198E0,1.471112490E0,4.701674938E0,2.211687565E0
2.072537198E0,2.518037558E0,3.956424952E0,2.267925024E0
2.092537198E0,2.929850101E0,3.676612377E0,1.795062542E0
2.112537198E0,2.753849983E0,3.846425056E0,1.307624936E0
2.132537198E0,2.320174932E0,4.256999969E0,9.240000248E-1
2.152537198E0,2.070887566E0,4.386387348E0,7.358999848E-1
2.172537198E0,2.339699984E0,4.103000164E0,8.018999696E-1
2.192537198E0,3.180237532E0,3.486037493E0,9.374749660E-1
2.212537198E0,3.780149937E0,2.985125065E0,1.069474936E0
2.232537198E0,3.864437580E0,2.570975065E0,1.316149950E0
2.252537198E0,3.134999990E0,1.765912533E0,7.249000072E-1
2.272537198E0,1.793687463E0,1.420099974E0,1.982749999E-1
2.292537198E0,-9.624999762E-1,-3.585999906E-1,-1.193500012E-1
2.312537198E0,-2.252662420E0,-1.270087481E0,-3.074499965E-1
2.332537198E0,-2.396899939E0,-2.069099903E0,-3.929750025E-1
2.352537198E0,-2.176899910E0,-2.573587418E0,-2.769249976E-1
2.372537198E0,-1.462175012E0,-2.871687412E0,4.812499881E-2
2.392537198E0,-7.976375222E-1,-2.957212448E0,1.641750038E-1
2.412537198E0,-8.256874681E-1,-3.059925079E0,-2.406249940E-2
2.432537198E0,-1.222787499E0,-3.032974958E0,-2.744500041E-1
2.452537198E0,-1.572175026E0,-3.020737410E0,-4.369750023E-1
2.472537198E0,-1.787225008E0,-2.977974892E0,-4.210250080E-1
2.492537198E0,-2.058374882E0,-3.153975010E0,-5.042124987E-1
2.512537198E0,-2.035274982E0,-3.360362530E0,-8.975999951E-1
2.532537198E0,-2.046274900E0,-3.178312540E0,-9.891750216E-1
2.552537198E0,-1.985087514E0,-2.858350039E0,-7.130749822E-1
2.572537198E0,-1.686987519E0,-2.938925028E0,-6.115999818E-1
2.592537198E0,-1.476887465E0,-3.090450048E0,-7.558375001E-1
2.612537198E0,-1.798225045E0,-3.386075020E0,-9.866999984E-1
2.632537198E0,-1.917987466E0,-3.191787481E0,-8.596500158E-1
2.652537198E0,-1.471937537E0,-3.201550007E0,-9.183624983E-1
2.672537198E0,-1.039499998E0,-3.272500038E0,-9.586499929E-1
2.692537198E0,-1.282600045E0,-3.281024933E0,-9.293624759E-1
2.712537198E0,-1.606412530E0,-3.624362469E0,-1.331274986E0
2.732537198E0,-1.387650013E0,-3.509412527E0,-1.217562437E0
2.752537198E0,-8.403999805E-1,-3.382362366E0,-8.694124818E-1
2.772537198E0,-7.523999810E-1,-3.394599915E0,-6.507874727E-1
2.792537198E0,-1.279024959E0,-3.464312553E0,-7.508875132E-1
2.812537198E0,-1.668699980E0,-3.654887438E0,-7.594124675E-1
2.832537198E0,-1.812799931E0,-4.016512394E0,-6.311249733E-1
2.852537198E0,-2.119562387E0,-4.136137486E0,-4.320249856E-1
2.872537198E0,-2.175662518E0,-4.080037594E0,-4.124999940E-1
2.892537198E0,-1.729750037E0,-4.137374878E0,-3.099249899E-1
2.912537198E0,-1.304600000E0,-4.309662342E0,-3.049750030E-1
2.932537198E0,-1.385312438E0,-4.408662319E0,-2.134000063E-1
2.952537198E0,-1.840987444E0,-4.193612576E0,-2.744500041E-1
2.972537198E0,-2.256375074E0,-4.055562496E0,-3.502124846E-1
2.992537198E0,-2.412712574E0,-3.665887594E0,-6.776000261E-1
3.012537198E0,-1.545362473E0,-2.565062523E0,-3.526875079E-1
3.032537198E0,-7.671124935E-1,-2.667637587E0,-3.892624974E-1
3.052537198E0,-2.184875011E-1,-2.320724964E0,-1.742125005E-1
3.072537198E0,3.287625015E-1,-2.183912516E0,2.301750034E-1
3.092537198E0,4.399999976E-1,-2.373250008E0,3.107500076E-1
3.112537198E0,5.018749833E-2,-2.403774977E0,2.619374990E-1
3.132537198E0,-4.470124841E-1,-2.445300102E0,2.215124965E-1
3.152537198E0,-6.216375232E-1,-2.518587589E0,1.812250018E-1
3.172537198E0,-6.326375008E-1,-2.617587566E0,1.434125006E-1
3.192537198E0,-5.483499765E-1,-2.733637571E0,7.617499679E-2
3.212537198E0,-5.105375051E-1,-2.819162369E0,-3.258749843E-2
3.232537198E0,-5.460125208E-1,-2.869212389E0,-7.411249727E-2
3.252537198E0,-6.925874949E-1,-2.904687405E0,-1.424500048E-1
3.272537198E0,-8.916875124E-1,-2.745874882E0,-1.913999915E-1
3.292537198E0,-1.015162468E0,-2.561349869E0,-1.889249980E-1
3.312537198E0,-9.833999872E-1,-2.458775043E0,-1.168750003E-1
3.332537198E0,-7.964000106E-1,-2.291437387E0,-1.911249943E-2
3.352537198E0,-3.859624863E-1,-1.915099978E0,1.384624988E-1
3.372537198E0,-1.691249944E-2,-1.902862549E0,3.852750063E-1
3.392537198E0,3.299999833E-1,-2.023862600E0,5.135625005E-1
3.412537198E0,4.289999902E-1,-2.268199921E0,4.867500067E-1
3.432537198E0,2.004749924E-1,-2.367199898E0,2.985124886E-1
3.452537198E0,-6.131125093E-1,-2.142387390E0,6.599999964E-3
3.472537198E0,-1.226500034E0,-2.010387421E0,-2.561624944E-1
3.492537198E0,-7.181624770E-1,-1.984812498E0,-1.986874938E-1
3.512537198E0,4.912874997E-1,-1.309137464E0,-2.304500043E-1
3.532537198E0,1.290300012E0,4.134624898E-1,-3.282124996E-1
3.552537198E0,9.519125223E-1,9.424250126E-1,-2.597374916E-1
3.572537198E0,-1.306249946E-1,5.222250223E-1,-5.335000157E-2
3.592537198E0,-1.018737435E0,3.999874890E-1,-9.487500042E-2
3.612537198E0,-1.380362511E0,5.137000084E-1,-1.718750000E-1
3.632537198E0,-1.296074986E0,8.141375184E-1,-3.562625051E-1
3.652537198E0,-9.063999653E-1,1.167237520E0,-6.861249804E-1
3.672537198E0,-1.586750001E-1,9.546625018E-1,-7.044125199E-1
3.692537198E0,1.479499936E-1,5.795624852E-1,-1.911249943E-2
3.712537198E0,2.407625020E-1,1.001137495E0,6.516125202E-1
3.732537198E0,2.077624947E-1,1.786674976E0,8.679000139E-1
3.752537198E0,1.871374995E-1,2.269162416E0,9.594749808E-1
3.772537198E0,3.409999907E-1,2.474449873E0,9.887624979E-1
3.792537198E0,6.353874803E-1,2.215537548E0,8.691374660E-1
3.812537198E0,9.629124999E-1,1.881962538E0,4.903250039E-1
3.832537198E0,1.082537532E0,1.778149962E0,-4.111250117E-2
3.852537198E0,9.127249718E-1,1.910012484E0,-2.866874933E-1
3.872537198E0,3.104749918E-1,2.354687452E0,-4.124999940E-1
3.892537198E0,-4.237749875E-1,3.150125027E0,-5.823125243E-1
3.912537198E0,-8.574500084E-1,4.116475105E0,-5.187875032E-1
3.932537198E0,-7.939249873E-1,4.854437351E0,-1.534499973E-1
3.952537198E0,-3.064875007E-1,5.043775082E0,2.215124965E-1
3.972537198E0,3.849999905E-1,4.859250069E0,3.877499998E-1
3.992537198E0,1.179062486E0,4.911775112E0,6.369000077E-1
4.012537198E0,1.776499987E0,4.966774940E0,7.078499794E-1
4.032537198E0,2.251699924E0,5.038825035E0,5.978500247E-1
4.052537198E0,2.459462404E0,5.045012474E0,4.745124876E-1
4.072537198E0,2.423987389E0,4.954537392E0,4.010874927E-1
4.092537198E0,2.338462591E0,5.118299961E0,6.650875211E-1
4.112537198E0,2.321412563E0,5.213587284E0,1.065762520E0
4.132537198E0,2.278650045E0,5.091350079E0,1.358912468E0
4.152537198E0,2.261600018E0,4.738249779E0,1.407862544E0
4.172537198E0,2.315224886E0,4.374287605E0,1.330862522E0
4.192537198E0,1.939025044E0,4.474387646E0,1.115812540E0
4.212537198E0,1.356299996E0,4.910537243E0,1.103574991E0
4.232537198E0,1.028774977E0,5.319874763E0,1.346812487E0
4.252537198E0,9.847750068E-1,5.693737507E0,1.696200013E0
4.272537198E0,1.406350017E0,5.697312355E0,2.078587532E0
4.292537198E0,2.244412422E0,5.269687653E0,2.401162386E0
4.312537198E0,2.977425098E0,4.886199951E0,2.427974939E0
4.332537198E0,3.127712488E0,4.990012646E0,2.346162558E0
4.352537198E0,3.122762442E0,5.319874763E0,2.388925076E0
4.372537198E0,3.286525011E0,5.558024883E0,2.599025011E0
4.392537198E0,3.604150057E0,5.197637558E0,2.646737576E0
4.412537198E0,3.890012503E0,4.353525162E0,2.120112419E0
4.432537198E0,3.649387598E0,4.061474800E0,1.598437548E0
4.452537198E0,2.983612537E0,4.000424862E0,1.295524955E0
4.472537198E0,2.266412497E0,3.966187477E0,9.582374692E-1
4.492537198E0,1.745975018E0,3.977187395E0,6.968500018E-1
4.512537198E0,1.809499979E0,3.534987450E0,3.755125105E-1
4.532537198E0,2.180887461E0,3.020600080E0,4.415124953E-1
4.552537198E0,2.612087488E0,2.343687534E0,1.029187441E0
4.572537198E0,2.960375071E0,1.646149993E0,1.542199969E0
4.592537198E0,2.779562473E0,6.517499685E-1,1.498199940E0
4.612537198E0,1.495450020E0,-4.025999904E-1,7.420874834E-1
4.632537198E0,-9.894499779E-1,-8.607500196E-1,-2.639999986E-2
4.652537198E0,-1.845800042E0,-1.412950039E0,-4.955500066E-1
4.672537198E0,-2.126849890E0,-2.121624947E0,-9.976999760E-1
4.692537198E0,-1.982749939E0,-2.394012451E0,-9.597499967E-1
4.712537198E0,-1.864225030E0,-2.759350061E0,-9.194625020E-1
4.732537198E0,-1.678462505E0,-2.791112423E0,-7.948874831E-1
4.752537198E0,-1.514837503E0,-2.628587484E0,-6.470749974E-1
4.772537198E0,-1.420650005E0,-2.588299990E0,-5.310249925E-1
4.792537198E0,-1.376787543E0,-2.722637415E0,-5.713124871E-1
4.812537198E0,-1.656462550E0,-2.764162540E0,-6.726499796E-1
4.832537198E0,-2.183087587E0,-2.565062523E0,-7.251750231E-1
4.852537198E0,-2.034037590E0,-2.495487452E0,-7.056499720E-1
4.872537198E0,-1.599125028E0,-2.599299908E0,-6.067875028E-1
4.892537198E0,-1.474412441E0,-2.744637489E0,-4.247374833E-1
4.912537198E0,-1.395074964E0,-2.970687389E0,-4.345000088E-1
4.932537198E0,-1.643124938E0,-3.064737558E0,-6.201249957E-1
4.952537198E0,-1.836037517E0,-2.819162369E0,-5.945500135E-1
4.972537198E0,-1.540412545E0,-2.952399969E0,-5.126000047E-1
4.992537198E0,-1.309550047E0,-3.464312553E0,-5.933125019E-1
5.012537198E0,-1.553887486E0,-3.846699953E0,-7.741249800E-1
5.032537198E0,-1.914274931E0,-3.889462471E0,-8.926500082E-1
5.052537198E0,-1.739650011E0,-3.482599974E0,-7.606499791E-1
5.072537198E0,-1.474412441E0,-3.520412445E0,-7.838875055E-1
5.092537198E0,-1.740749955E0,-3.641412497E0,-8.584125042E-1
5.112537198E0,-1.656462550E0,-3.751412392E0,-9.059875011E-1
5.132537198E0,-9.601625204E-1,-3.797749996E0,-8.779374957E-1
5.152537198E0,-1.228974938E0,-3.558362484E0,-9.585124850E-1
5.172537198E0,-2.275899887E0,-2.963399887E0,-9.805124998E-1
5.192537198E0,-2.154900074E0,-2.753162384E0,-8.804125190E-1
5.212537198E0,-1.037162542E0,-3.295599937E0,-7.031750083E-1
5.232537198E0,-1.008975029E0,-3.496074915E0,-8.204625249E-1
5.252537198E0,-1.927749991E0,-2.984162569E0,-8.511250019E-1
5.272537198E0,-1.479362488E0,-2.651824951E0,-5.652624965E-1
5.292537198E0,-5.105375051E-1,-2.976737499E0,-4.467374980E-1
5.312537198E0,-6.815875173E-1,-3.120975018E0,-5.933125019E-1
5.332537198E0,-1.296074986E0,-2.675062418E0,-5.945500135E-1
5.352537198E0,-1.112787485E0,-2.275487423E0,-3.977875113E-1
5.372537198E0,-5.080624819E-1,-2.384249926E0,-3.306874931E-1
5.392537198E0,-6.485875249E-1,-2.435537577E0,-2.671625018E-1
5.412537198E0,-8.501625061E-1,-2.312200069E0,-1.962125003E-1
5.432537198E0,-7.060624957E-1,-2.292675018E0,-1.388749927E-1
5.452537198E0,-6.143500209E-1,-2.231487513E0,-1.534499973E-1
5.472537198E0,-8.331124783E-1,-1.945624948E0,-6.668750197E-2
5.492537198E0,-8.904500008E-1,-1.854050040E0,1.006499976E-1
5.512537198E0,-8.013499975E-1,-1.959100008E0,4.564999789E-2
5.532537198E0,-7.658749819E-1,-1.863812447E0,-1.486375034E-1
5.552537198E0,-6.998749971E-1,-1.714762449E0,-1.436875015E-1
5.572537198E0,-5.410624743E-1,-1.668287516E0,-9.735000134E-2
5.592537198E0,-4.934875071E-1,-1.784337521E0,-1.787500083E-2
5.612537198E0,-4.457750022E-1,-1.861337543E0,8.470000327E-2
5.632537198E0,-3.797749877E-1,-1.679287434E0,1.104125008E-1
5.652537198E0,-1.293874979E-1,-1.933387518E0,3.107500076E-1
5.672537198E0,-2.991999984E-1,-2.310962439E0,-2.939749956E-1
5.692537198E0,-4.397250116E-1,-1.945624948E0,-2.793999910E-1
5.712537198E0,-3.737249970E-1,-2.048337460E0,3.836249933E-2
5.732537198E0,-2.734875083E-1,-2.180200100E0,-4.592499882E-2
5.752537198E0,-3.394874930E-1,-2.148437500E0,-1.717374921E-1
5.772537198E0,-4.592500031E-1,-2.072674990E0,-1.632124931E-1
5.792537198E0,-5.202999711E-1,-2.045862436E0,-1.632124931E-1
5.812537198E0,-5.398250222E-1,-1.916337490E0,-2.255000025E-1
5.832537198E0,-5.715875030E-1,-1.830812454E0,-2.389750034E-1
5.852537198E0,-5.667750239E-1,-1.761237502E0,-2.279749960E-1
5.872537198E0,-5.275874734E-1,-1.684237480E0,-3.025000095E-1
5.892537198E0,-5.752999783E-1,-1.515662551E0,-3.795000017E-1
5.912537198E0,-6.913499832E-1,-1.410612464E0,-3.647874892E-1
5.932537198E0,-7.536374927E-1,-1.298137546E0,-3.062124848E-1
5.952537198E0,-7.291625142E-1,-1.255375028E0,-2.572624981E-1
5.972537198E0,-6.938250065E-1,-1.255375028E0,-2.829749882E-1
5.992537198E0,-6.143500209E-1,-1.154037476E0,-3.012624979E-1
6.012537198E0,-5.055875182E-1,-9.585124850E-1,-2.707374990E-1
6.032537198E0,-3.467749953E-1,-7.276499867E-1,-2.084500045E-1
6.052537198E0,-2.283875048E-1,-7.411249876E-1,-2.011625022E-1
6.072537198E0,-1.989624947E-1,-7.521250248E-1,-1.766874939E-1
6.092537198E0,-2.051499933E-1,-5.773624778E-1,-1.498750001E-1
6.112537198E0,-6.091250107E-2,-2.182125002E-1,1.264999993E-2
6.132537198E0,1.454750001E-1,-1.289750040E-1,9.693749994E-2
6.152537198E0,2.799499929E-1,1.883750036E-2,1.018875018E-1
6.172537198E0,2.004749924E-1,2.668874860E-1,2.859999985E-2
6.192537198E0,7.466249913E-2,6.395124793E-1,-4.468749836E-2
6.212537198E0,4.042499885E-2,8.716124892E-1,-9.239999950E-2
6.232537198E0,1.027124971E-1,9.473749995E-1,-2.243999988E-1
6.252537198E0,6.366249919E-2,9.399499893E-1,2.521750033E-1
6.272537198E0,1.724250019E-1,1.015712500E0,1.164624989E-1
6.292537198E0,4.570499957E-1,1.206287503E0,2.472250015E-1
6.312537198E0,5.730999708E-1,1.258812547E0,2.851749957E-1
6.332537198E0,6.085749865E-1,1.368812442E0,3.254624903E-1
6.352537198E0,7.563874722E-1,1.313812494E0,4.769875109E-1
6.372537198E0,9.519125223E-1,1.192950010E0,5.820375085E-1
6.392537198E0,1.004437447E0,1.065899968E0,5.953750014E-1
6.412537198E0,8.467249870E-1,1.128187537E0,5.722749829E-1
6.432537198E0,6.635749936E-1,1.263762474E0,5.856124759E-1
6.452537198E0,6.098124981E-1,1.214949965E0,6.503750086E-1
6.472537198E0,5.890499949E-1,1.091475010E0,7.090874910E-1
6.492537198E0,5.352874994E-1,1.018187523E0,7.456625104E-1
6.512537198E0,4.582875073E-1,1.169712543E0,7.261375189E-1
6.532537198E0,1.772374958E-1,1.531337500E0,5.990874767E-1
6.552537198E0,1.237499993E-2,1.775674939E0,5.110874772E-1
6.572537198E0,-6.091250107E-2,1.823249936E0,4.390375018E-1
6.592537198E0,-1.049124971E-1,1.835487485E0,2.741749883E-1
6.612537198E0,-7.809999585E-2,1.902724981E0,1.507000029E-1
6.632537198E0,-4.812499974E-3,1.987012506E0,1.886499971E-1
6.652537198E0,6.861250103E-2,2.109250069E0,1.909874976E-1
6.672537198E0,2.089999914E-1,2.342587471E0,1.018875018E-1
6.692537198E0,4.070000052E-1,2.579499960E0,1.388750039E-2
6.712537198E0,4.973374903E-1,2.601500034E0,-1.119249985E-1
6.732537198E0,5.058624744E-1,2.599025011E0,-1.779250056E-1
6.752537198E0,5.658124685E-1,2.691974878E0,-1.779250056E-1
6.772537198E0,6.708624959E-1,2.756737471E0,-1.009249985E-1
6.792537198E0,7.294374704E-1,2.849550009E0,-6.063750014E-2
6.812537198E0,7.783874869E-1,3.081650019E0,-5.816249922E-2
6.832537198E0,6.916249990E-1,3.281987429E0,-3.011249937E-2
6.852537198E0,3.557125032E-1,3.560562372E0,1.886499971E-1
6.872537198E0,3.007124960E-1,3.831850052E0,4.817999899E-1
6.892537198E0,4.533374906E-1,4.184812546E0,6.528499722E-1
6.912537198E0,6.623374820E-1,4.569674969E0,8.386124969E-1
6.932537198E0,8.406749964E-1,4.771249771E0,1.121999979E0
6.952537198E0,1.121724963E0,4.655200005E0,1.531199932E0
6.972537198E0,1.268299937E0,4.354624748E0,1.718199968E0
6.992537198E0,1.441825032E0,4.309525013E0,1.851300001E0
7.012537198E0,1.616449952E0,4.417049885E0,1.950299978E0
7.032537198E0,1.610399961E0,4.523337364E0,1.998012543E0
7.052537198E0,1.444162488E0,4.600200176E0,2.061537504E0
7.072537198E0,1.474687457E0,4.563624859E0,2.120112419E0
7.092537198E0,1.607924938E0,4.473149776E0,2.107874870E0
7.112537198E0,1.687262535E0,4.508625031E0,2.093300104E0
7.132537198E0,1.792449951E0,4.662624836E0,2.168925047E0
7.152537198E0,2.026887417E0,4.590437412E0,2.338737488E0
7.172537198E0,2.088074923E0,4.090762615E0,2.214162588E0
7.192537198E0,2.128362417E0,3.840374947E0,2.049299955E0
7.212537198E0,2.273699999E0,3.809849977E0,2.068825006E0
7.232537198E0,2.420412540E0,3.765850067E0,2.096874952E0
7.252537198E0,2.811325073E0,3.490987539E0,2.023587465E0
7.272537198E0,3.373287439E0,2.913074970E0,1.630200028E0
7.292537198E0,3.237712383E0,2.540450096E0,9.106624722E-1
7.312537198E0,2.581562519E0,2.734737396E0,3.827999830E-1
7.332537198E0,1.613975048E0,3.310174942E0,9.088750184E-2
7.352537198E0,1.096012473E0,3.377274990E0,3.987500072E-1
7.372537198E0,1.653162479E0,2.577162504E0,9.974250197E-1
7.392537198E0,2.542512417E0,1.919775009E0,1.440862536E0
7.412537198E0,3.083712578E0,1.475100040E0,1.872062445E0
7.432537198E0,2.872375011E0,9.351375103E-1,2.109112501E0
7.452537198E0,1.617687464E0,2.338874936E-1,1.417624950E0
7.472537198E0,2.347124964E-1,-1.887875050E-1,7.114250064E-1
7.492537198E0,-1.385312438E0,-2.039674997E0,-3.172124922E-1
7.512537198E0,-2.142800093E0,-2.719062567E0,-9.904124737E-1
7.532537198E0,-2.470187426E0,-2.954737425E0,-1.393562436E0
7.552537198E0,-2.457949877E0,-3.112449884E0,-1.703762531E0
7.572537198E0,-2.360187531E0,-3.395837545E0,-1.891999960E0
7.592537198E0,-2.261187553E0,-3.853987455E0,-1.834524989E0
7.612537198E0,-2.175662518E0,-4.026275158E0,-1.562137485E0
7.632537198E0,-2.192849874E0,-4.207087517E0,-1.246850014E0
7.652537198E0,-2.180612564E0,-4.371950150E0,-1.134512544E0
7.672537198E0,-1.937512517E0,-4.260849953E0,-1.006224990E0
7.692537198E0,-1.614937544E0,-3.939512491E0,-6.335999966E-1
7.712537198E0,-2.014512539E0,-3.676887512E0,-4.797374904E-1
7.732537198E0,-2.223375082E0,-3.636462450E0,-7.056499720E-1
7.752537198E0,-2.062087536E0,-3.513124943E0,-6.836500168E-1
7.772537198E0,-1.761512518E0,-3.417837381E0,-4.478375018E-1
7.792537198E0,-1.806749940E0,-3.448362589E0,-5.590749979E-1
7.812537198E0,-1.509887457E0,-3.257787466E0,-5.530250072E-1
7.832537198E0,-8.672124743E-1,-3.336025000E0,-4.870249927E-1
7.852537198E0,-8.196374774E-1,-3.218737364E0,-4.295499921E-1
7.872537198E0,-1.189787507E0,-3.018399954E0,-4.992625117E-1
7.892537198E0,-1.387787461E0,-2.874162436E0,-6.421250105E-1
7.912537198E0,-1.469599962E0,-2.614012480E0,-7.276499867E-1
7.932537198E0,-1.187312484E0,-2.532062531E0,-6.043124795E-1
7.952537198E0,-5.495874882E-1,-2.869349957E0,-4.417875111E-1
7.972537198E0,-6.058250070E-1,-3.160024881E0,-4.160749912E-1
7.992537198E0,-1.131212473E0,-2.971925020E0,-4.087874889E-1
8.012537198E0,-1.279024959E0,-2.671350002E0,-3.807374835E-1
8.032537198E0,-1.019974947E0,-2.804587603E0,-3.587374985E-1
8.052537198E0,-7.964000106E-1,-2.947449923E0,-1.632124931E-1
8.072537198E0,-5.337749720E-1,-3.103787422E0,-3.011249937E-2
8.092537198E0,-6.925874949E-1,-3.129499912E0,-9.968750179E-2
8.112537198E0,-1.260737538E0,-2.747112513E0,-2.585000098E-1
8.132537198E0,-1.038262486E0,-2.640825033E0,-1.596374959E-1
8.152537198E0,-5.582500100E-1,-2.942637444E0,5.293750018E-2
8.172537198E0,-6.523000002E-1,-3.001212597E0,9.693749994E-2
8.192537198E0,-1.162974954E0,-2.754400015E0,-1.021625027E-1
8.212537198E0,-1.362074971E0,-2.325675011E0,-1.326874942E-1
8.232537198E0,-3.920125067E-1,-2.214437485E0,3.607999980E-1
8.252537198E0,-3.162499890E-2,-2.941400051E0,1.836999953E-1
8.272537198E0,-4.775374830E-1,-2.632299900E0,2.679874897E-1
8.292537198E0,-1.018737435E0,-2.095912457E0,6.888750196E-2
8.312537198E0,-1.195974946E0,-1.756287456E0,-1.046374962E-1
8.332537198E0,-9.601625204E-1,-1.723287463E0,-2.034999989E-2
8.352537198E0,-7.341125011E-1,-1.849099994E0,2.081750035E-1
8.372537198E0,-5.740625262E-1,-1.891862512E0,3.315125108E-1
8.392537198E0,-4.237749875E-1,-1.750237465E0,3.497999907E-1
8.412537198E0,-3.664374948E-1,-1.541237473E0,4.060375094E-1
8.432537198E0,-4.054875076E-1,-1.405662537E0,4.500375092E-1
8.452537198E0,-4.200625122E-1,-1.252900004E0,4.305124879E-1
8.472537198E0,-3.822500110E-1,-1.165037513E0,3.950375021E-1
8.492537198E0,-3.077250123E-1,-1.114850044E0,3.046999872E-1
8.512537198E0,-3.455374837E-1,-1.064800024E0,2.252250016E-1
8.532537198E0,-5.728250146E-1,-9.707499743E-1,1.372250021E-1
8.552537198E0,-7.548750043E-1,-8.314625025E-1,1.141249985E-1
8.572537198E0,-6.388249993E-1,-8.314625025E-1,1.604624987E-1
8.592537198E0,-5.508249998E-1,-9.255124927E-1,1.836999953E-1
8.612537198E0,-5.545374751E-1,-9.695125222E-1,1.776500046E-1
8.632537198E0,-5.545374751E-1,-9.389874935E-1,1.727000028E-1
8.652537198E0,-3.467749953E-1,-1.028224945E0,9.446249902E-2
8.672537198E0,-2.734875083E-1,-1.135612488E0,-1.416249946E-2
8.692537198E0,-4.200625122E-1,-1.147850037E0,-9.844999760E-2
8.712537198E0,-6.388249993E-1,-1.107562542E0,-2.059749961E-1
8.732537198E0,-8.233500123E-1,-1.085562468E0,-2.756874859E-1
8.752537198E0,-8.696874976E-1,-1.008562446E0,-3.203749955E-1
8.772537198E0,-7.193999887E-1,-9.927499890E-1,-2.800875008E-1
8.792537198E0,-4.482499957E-1,-1.035512447E0,-1.908500046E-1
8.812537198E0,-1.464374959E-1,-1.022037506E0,-1.420374960E-1
8.832537198E0,8.195000142E-2,-9.462749958E-1,-1.260875016E-1
8.852537198E0,2.237125039E-1,-9.634624720E-1,-1.016125008E-1
8.872537198E0,2.897124887E-1,-1.030562520E0,-1.627999991E-1
8.892537198E0,9.913749993E-2,-1.035512447E0,-1.493249983E-1
8.912537198E0,-1.696749926E-1,-1.006224990E0,-1.090374961E-1
8.932537198E0,-3.224374950E-1,-9.011750221E-1,-1.175625026E-1
8.952537198E0,-3.137750030E-1,-8.216999769E-1,-1.310375035E-1
8.972537198E0,-1.428624988E-1,-7.972249985E-1,-1.200374961E-1
8.992537198E0,2.612499986E-3,-8.461750150E-1,-1.297999918E-1
9.012537198E0,1.027124971E-1,-8.681749701E-1,-1.150875017E-1
9.032537198E0,1.234750003E-1,-8.302249908E-1,-5.279999971E-2
9.052537198E0,3.313750029E-2,-7.349374890E-1,-2.474999987E-2
9.072537198E0,-1.489125043E-1,-7.178875208E-1,-3.808749840E-2
9.092537198E0,-1.989624947E-1,-6.481750011E-1,-5.527500063E-2
9.112537198E0,-2.369125038E-1,-4.123624861E-1,-1.040875018E-1
9.132537198E0,-2.197249979E-1,-1.669249982E-1,-1.236125007E-1
9.152537198E0,-1.636250019E-1,-1.216875017E-1,-2.832499892E-2
9.172537198E0,-3.891250119E-2,-1.142624989E-1,5.719999969E-2
9.192537198E0,5.871250108E-2,-7.974999957E-3,1.634874940E-1
9.212537198E0,2.612499986E-3,2.754124999E-1,1.867250055E-1
9.232537198E0,-3.574999981E-3,6.822749972E-1,4.001250118E-2
9.252537198E0,1.809500009E-1,8.018999696E-1,9.501250088E-2
9.272537198E0,5.182374716E-1,6.627500057E-1,2.868250012E-1
9.292537198E0,8.064374924E-1,5.807999969E-1,4.419249892E-1
9.312537198E0,9.042000175E-1,6.858500242E-1,3.686375022E-1
9.332537198E0,9.201499820E-1,8.508499861E-1,3.356375098E-1
9.352537198E0,9.739124775E-1,9.424250126E-1,3.503499925E-1
9.372537198E0,9.066749811E-1,9.876624942E-1,4.456374943E-1
9.392537198E0,8.724374771E-1,1.321237445E0,4.101625085E-1
9.412537198E0,8.883875012E-1,1.554574966E0,2.550624907E-1
9.432537198E0,7.943375111E-1,1.663337469E0,1.388749927E-1
9.452537198E0,6.293374896E-1,1.727962494E0,7.424999774E-2
9.472537198E0,5.072374940E-1,1.801387548E0,4.606249928E-2
9.492537198E0,4.998124838E-1,1.894199967E0,1.182499994E-2
9.512537198E0,5.720000267E-1,1.897774935E0,-6.462499965E-3
9.532537198E0,6.733375192E-1,1.866012454E0,1.058750041E-2
9.552537198E0,7.735750079E-1,1.842912436E0,-5.651250109E-2
9.572537198E0,8.053374887E-1,1.868487477E0,-1.407999992E-1
9.592537198E0,7.661499977E-1,1.928437471E0,-1.750375032E-1
9.612537198E0,6.868125200E-1,2.094537497E0,-2.117500007E-1
9.632537198E0,6.355249882E-1,2.298587561E0,-3.851374984E-1
9.652537198E0,6.428124905E-1,2.501399994E0,-5.513749719E-1
9.672537198E0,6.305750012E-1,2.685787439E0,-6.466624737E-1
9.692537198E0,6.476249695E-1,2.864262581E0,-7.455250025E-1
9.712537198E0,7.343875170E-1,3.294224977E0,-7.871875167E-1
9.732537198E0,7.955750227E-1,3.701087475E0,-7.272375226E-1
9.752537198E0,8.981499672E-1,4.017475128E0,-6.282374859E-1
9.772537198E0,1.031387448E0,4.189762592E0,-5.148000121E-1
9.792537198E0,1.193774939E0,4.150712490E0,-5.171374679E-1
9.812537198E0,1.259775043E0,4.190999985E0,-5.648499727E-1
9.832537198E0,9.922000170E-1,4.650387287E0,-3.815625012E-1
9.852537198E0,8.798624873E-1,5.163537502E0,-6.270000339E-2
9.872537198E0,1.688637495E0,4.754199982E0,5.065500140E-1
9.892537198E0,2.778325081E0,3.624087572E0,6.434999704E-1
9.912537198E0,2.636699915E0,3.269887447E0,2.622124851E-1
9.932537198E0,1.548112512E0,4.225237370E0,3.526875079E-1
9.952537198E0,1.193774939E0,4.734674931E0,5.713124871E-1
9.972537198E0,1.346537471E0,4.833674908E0,7.350749969E-1
9.992537198E0,1.542062521E0,4.749249935E0,8.889374733E-1
1.001253720E1,1.400300026E0,4.673624992E0,8.669375181E-1
1.003253720E1,6.342874765E-1,5.100012302E0,5.677375197E-1
1.005253720E1,2.543750107E-1,5.438399792E0,6.030749679E-1
1.007253720E1,4.131875038E-1,5.417637348E0,9.073625207E-1
1.009253720E1,1.265962481E0,4.931300163E0,1.448562503E0
1.011253720E1,2.362937450E0,3.979662418E0,1.685612440E0
1.013253720E1,2.917612553E0,3.432275057E0,1.691662550E0
1.015253720E1,2.629275084E0,3.449462414E0,1.562137485E0
1.017253720E1,2.224887371E0,3.690087557E0,1.397274971E0
1.019253720E1,2.058787584E0,3.577749968E0,1.221274972E0
1.021253720E1,2.122312546E0,3.279649973E0,1.059987545E0
1.023253720E1,2.056312561E0,2.985125065E0,8.108375072E-1
1.025253720E1,1.534637451E0,2.914312601E0,4.492124915E-1
1.027253720E1,1.133962512E0,3.024312496E0,2.682625055E-1
1.029253720E1,1.031387448E0,2.907025099E0,2.866874933E-1
1.031253720E1,1.234200001E0,2.523400068E0,5.040749907E-1
1.033253720E1,1.505349994E0,1.963775039E0,7.020750046E-1
1.035253720E1,1.457774997E0,1.575337529E0,1.140562534E0
1.037253720E1,1.371012449E0,1.379812479E0,1.040462494E0
1.039253720E1,1.262249947E0,1.235712528E0,1.084462523E0
1.041253720E1,1.127912521E0,8.068500161E-1,1.139462471E0
1.043253720E1,5.537124872E-1,1.031249948E-2,8.657000065E-1
1.045253720E1,-3.735874891E-1,-8.974624872E-1,1.816374958E-1
1.047253720E1,-1.090787530E0,-1.422712445E0,-5.550875068E-1
1.049253720E1,-1.623462439E0,-1.574237466E0,-9.864249825E-1
1.051253720E1,-1.735800028E0,-1.742812514E0,-1.153762460E0
1.053253720E1,-1.346125007E0,-2.191200018E0,-1.284525037E0
1.055253720E1,-1.021075010E0,-2.434299946E0,-1.220999956E0
1.057253720E1,-1.081025004E0,-2.449012518E0,-1.146474957E0
1.059253720E1,-1.231312513E0,-2.400062561E0,-1.049950004E0
1.061253720E1,-1.188549995E0,-2.345200062E0,-8.898999691E-1
1.063253720E1,-9.025499821E-1,-2.490537405E0,-7.554249763E-1
1.065253720E1,-8.597875237E-1,-2.585824966E0,-5.733749866E-1
1.067253720E1,-9.074999690E-1,-2.501537561E0,-4.329875112E-1
1.069253720E1,-9.869750142E-1,-2.489300013E0,-4.890874922E-1
1.071253720E1,-1.314362526E0,-2.405012369E0,-4.830375016E-1
1.073253720E1,-1.297175050E0,-2.341487408E0,-5.587999821E-1
1.075253720E1,-1.026024938E0,-2.265724897E0,-5.453249812E-1
1.077253720E1,-6.338750124E-1,-2.224200010E0,-3.205125034E-1
1.079253720E1,-5.568749905E-1,-2.317012548E0,-2.179374993E-1
1.081253720E1,-8.342124820E-1,-2.524775028E0,-3.718000054E-1
1.083253720E1,-1.012549996E0,-2.431824923E0,-4.365625083E-1
1.085253720E1,-7.511624694E-1,-2.474587440E0,-3.229874969E-1
1.087253720E1,-7.206375003E-1,-2.786162376E0,-3.057999909E-1
1.089253720E1,-1.016262531E0,-2.791112423E0,-3.657499850E-1
1.091253720E1,-1.004024982E0,-2.731162548E0,-3.572250009E-1
1.093253720E1,-8.464499712E-1,-2.803349972E0,-3.267000020E-1
1.095253720E1,-8.476874828E-1,-2.814349890E0,-3.119874895E-1
1.097253720E1,-1.105362535E0,-2.925450087E0,-3.852750063E-1
1.099253720E1,-1.151837468E0,-2.870450020E0,-4.133250117E-1
1.101253720E1,-9.197375178E-1,-2.798399925E0,-3.388000131E-1
1.103253720E1,-6.484500170E-1,-2.846112490E0,-2.827000022E-1
1.105253720E1,-6.729249954E-1,-2.876637459E0,-3.352249861E-1
1.107253720E1,-8.464499712E-1,-2.717824936E0,-4.390375018E-1
1.109253720E1,-1.105362535E0,-2.472249985E0,-6.210874915E-1
1.111253720E1,-8.855000138E-1,-2.375725031E0,-5.893250108E-1
1.113253720E1,-6.228749752E-1,-2.396487474E0,-5.086125135E-1
1.115253720E1,-6.754000187E-1,-2.361012459E0,-5.025625229E-1
1.117253720E1,-9.539750218E-1,-2.221724987E0,-5.453249812E-1
1.119253720E1,-8.097375035E-1,-2.236437559E0,-4.817999899E-1
1.121253720E1,-6.484500170E-1,-2.383012533E0,-3.462249935E-1
1.123253720E1,-9.197375178E-1,-2.297487497E0,-3.217499852E-1
1.125253720E1,-9.710249901E-1,-2.072674990E0,-2.667500079E-1
1.127253720E1,-5.531625152E-1,-2.073912382E0,-1.434125006E-1
1.129253720E1,-2.623499930E-1,-2.301199913E0,-2.983750030E-2
1.131253720E1,-7.302625179E-1,-2.291437387E0,-5.678749830E-2
1.133253720E1,-9.893124700E-1,-2.088624954E0,-1.336500049E-1
1.135253720E1,-7.034500241E-1,-2.121624947E0,-3.959999979E-2
1.137253720E1,-3.883000016E-1,-2.375725031E0,1.204499975E-1
1.139253720E1,-4.823499918E-1,-2.387962580E0,1.082125008E-1
1.141253720E1,-5.531625152E-1,-2.235199928E0,-6.283749640E-2
1.143253720E1,-3.625875115E-1,-2.254724979E0,-1.568875015E-1
1.145253720E1,-3.613499999E-1,-2.403774977E0,-2.204124928E-1
1.147253720E1,-6.777374744E-1,-2.265724897E0,-2.961750031E-1
1.149253720E1,-7.987374663E-1,-2.176487446E0,-1.153625026E-1
1.151253720E1,-2.048750035E-2,-2.089862585E0,6.049999967E-2
1.153253720E1,-2.270125002E-1,-2.582112551E0,-2.179374993E-1
1.155253720E1,-5.348749757E-1,-2.325537443E0,-1.838375032E-1
1.157253720E1,-5.824499726E-1,-1.989624977E0,-1.018875018E-1
1.159253720E1,-3.553000093E-1,-1.739237547E0,-1.996500045E-1
1.161253720E1,-9.019999951E-2,-1.708575010E0,-1.838375032E-1
1.163253720E1,2.103750035E-2,-1.767287493E0,-1.874125004E-1
1.165253720E1,-2.000624985E-1,-1.772099972E0,-2.326499969E-1
1.167253720E1,-5.421624780E-1,-1.715999961E0,-5.059999973E-2
1.169253720E1,-6.349750161E-1,-1.643812537E0,2.927374840E-1
1.171253720E1,-6.142125130E-1,-1.753812432E0,4.221250117E-1
1.173253720E1,-4.444000125E-1,-1.599949956E0,1.912624985E-1
1.175253720E1,-1.744875014E-1,-1.324949980E0,-6.505125165E-1
1.177253720E1,-9.748750180E-2,-1.460662484E0,-6.052749753E-1
1.179253720E1,-2.990624905E-1,-1.267612457E0,-4.732750058E-1
1.181253720E1,-6.936874986E-1,-1.166137457E0,-3.755125105E-1
1.183253720E1,-9.477875233E-1,-1.084324956E0,-3.975124955E-1
1.185253720E1,-9.135500193E-1,-1.101374984E0,-3.914625049E-1
1.187253720E1,-7.547374964E-1,-1.204087496E0,-3.852750063E-1
1.189253720E1,-5.543999672E-1,-1.278612494E0,-3.767499924E-1
1.191253720E1,-3.918749988E-1,-1.460662484E0,-2.864125073E-1
1.193253720E1,-2.135374993E-1,-1.520475030E0,-2.044624984E-1
1.195253720E1,-1.720124930E-1,-1.549762487E0,-1.519374996E-1
1.197253720E1,-1.805374920E-1,-1.574237466E0,-1.311749965E-1
1.199253720E1,-2.440624982E-1,-1.546187520E0,-1.398375034E-1
1.201253720E1,-3.478749990E-1,-1.532712460E0,-1.751749963E-1
1.203253720E1,-3.968249857E-1,-1.427662492E0,-2.534124851E-1
1.205253720E1,-4.310624897E-1,-1.439900041E0,-2.814624906E-1
1.207253720E1,-4.578749835E-1,-1.390949965E0,-3.669874966E-1
1.209253720E1,-5.483499765E-1,-1.273662448E0,-4.354625046E-1
1.211253720E1,-6.032124758E-1,-1.246850014E0,-3.999874890E-1
1.213253720E1,-6.252124906E-1,-1.450899959E0,-3.181749880E-1
1.215253720E1,-7.095000148E-1,-1.250424981E0,-3.669874966E-1
1.217253720E1,-7.425000072E-1,-8.802750111E-1,-2.326499969E-1
1.219253720E1,-5.201625228E-1,-5.663625002E-1,-7.136250287E-2
1.221253720E1,-1.707749963E-1,-2.083124965E-1,-3.464999795E-2
1.223253720E1,1.590874940E-1,1.813624948E-1,3.616249934E-2
1.225253720E1,3.301374912E-1,4.624125063E-1,1.790249944E-1
1.227253720E1,3.044250011E-1,7.262749672E-1,3.452624977E-1
1.229253720E1,2.690874934E-1,7.640874982E-1,4.430249929E-1
1.231253720E1,1.859000027E-1,8.606125116E-1,4.478375018E-1
1.233253720E1,1.896124929E-1,1.093950033E0,5.480750203E-1
1.235253720E1,3.471874893E-1,1.253999949E0,6.616500020E-1
1.237253720E1,5.427125096E-1,1.321237445E0,7.301250100E-1
1.239253720E1,6.012874842E-1,1.396999955E0,7.471749783E-1
1.241253720E1,5.707625151E-1,1.497099996E0,7.789375186E-1
1.243253720E1,5.414749980E-1,1.647387505E0,8.815125227E-1
1.245253720E1,6.269999743E-1,1.812387466E0,1.045274973E0
1.247253720E1,7.565249801E-1,1.919912457E0,1.136849999E0
1.249253720E1,7.943375111E-1,2.053012371E0,1.099037528E0
1.251253720E1,7.797625065E-1,2.242350101E0,1.000037551E0
1.253253720E1,7.332875133E-1,2.387825012E0,9.292249680E-1
1.255253720E1,6.782875061E-1,2.454925060E0,9.010375142E-1
1.257253720E1,7.039999962E-1,2.612499952E0,9.022749662E-1
1.259253720E1,7.393375039E-1,2.687025070E0,8.399875164E-1
1.261253720E1,7.369999886E-1,2.771312475E0,7.409874797E-1
1.263253720E1,6.782875061E-1,2.803075075E0,5.736500025E-1
1.265253720E1,6.220499873E-1,2.869075060E0,3.880249858E-1
1.267253720E1,6.012874842E-1,3.009599924E0,2.132624984E-1
1.269253720E1,5.659499764E-1,3.217362404E0,1.773750037E-2
1.271253720E1,4.596624970E-1,3.281987429E0,-1.348875016E-1
1.273253720E1,3.301374912E-1,3.385937452E0,-3.181749880E-1
1.275253720E1,2.470874935E-1,3.574037552E0,-4.427500069E-1
1.277253720E1,2.726624906E-1,3.658324957E0,-4.892250001E-1
1.279253720E1,4.376625121E-1,3.505562544E0,-4.916999936E-1
1.281253720E1,5.451874733E-1,3.525224924E0,-2.924624979E-1
1.283253720E1,4.181374907E-1,3.961374998E0,1.424500048E-1
1.285253720E1,2.116124928E-1,4.562387466E0,6.774625182E-1
1.287253720E1,2.923249900E-1,4.700437546E0,1.141800046E0
1.289253720E1,1.232962489E0,4.121425152E0,1.882099986E0
1.291253720E1,2.112550020E0,3.662037373E0,1.412950039E0
1.293253720E1,1.884162545E0,3.519037485E0,9.120374918E-1
1.295253720E1,1.225674987E0,4.332762241E0,8.119375110E-1
1.297253720E1,1.016674995E0,4.953299999E0,1.130800009E0
1.299253720E1,1.372249961E0,4.905725002E0,1.582762480E0
1.301253720E1,1.595824957E0,4.601437569E0,1.628000021E0
1.303253720E1,1.553062439E0,4.338812351E0,1.409374952E0
1.305253720E1,8.017625213E-1,4.467100143E0,1.011037469E0
1.307253720E1,1.750375032E-1,4.980249882E0,9.682750106E-1
1.309253720E1,4.059000015E-1,5.183062553E0,1.432474971E0
1.311253720E1,1.581112504E0,4.706624985E0,2.174149990E0
1.313253720E1,2.275074959E0,4.076187611E0,2.285249949E0
1.315253720E1,2.598887444E0,3.670562506E0,2.204674959E0
1.317253720E1,2.532887459E0,3.638799906E0,2.208250046E0
1.319253720E1,2.474174976E0,3.764612436E0,2.130150080E0
1.321253720E1,2.585412502E0,3.565512419E0,1.924862504E0
1.323253720E1,2.597650051E0,3.457987547E0,1.753812432E0
1.325253720E1,2.332550049E0,3.395699978E0,1.409374952E0
1.327253720E1,1.948925018E0,3.410274982E0,1.125849962E0
1.329253720E1,1.459012508E0,3.174599886E0,7.532249689E-1
1.331253720E1,1.020387530E0,2.859312534E0,5.077875257E-1
1.333253720E1,7.907624841E-1,2.556400061E0,4.551250041E-1
1.335253720E1,8.212875128E-1,2.233824968E0,5.493124723E-1
1.337253720E1,1.163387537E0,1.848962545E0,8.277499676E-1
1.339253720E1,1.628824949E0,1.497099996E0,1.270087481E0
1.341253720E1,1.908499956E0,8.776624799E-1,1.476475000E0
1.343253720E1,1.445537448E0,-4.468749836E-2,1.172325015E0
1.345253720E1,2.934249938E-1,-3.757874966E-1,4.723125100E-1
1.347253720E1,-4.444000125E-1,-4.844124913E-1,3.739999980E-2
1.349253720E1,-7.107374668E-1,-1.331137538E0,-3.609375060E-1
1.351253720E1,-8.194999695E-1,-1.941912532E0,-7.788000107E-1
1.353253720E1,-9.330750108E-1,-2.176487446E0,-1.134237528E0
1.355253720E1,-9.550749660E-1,-2.337774992E0,-1.323575020E0
1.357253720E1,-1.033312440E0,-2.610300064E0,-1.425050020E0
1.359253720E1,-1.272699952E0,-2.832637548E0,-1.482387543E0
1.361253720E1,-1.422987461E0,-2.875400066E0,-1.486099958E0
1.363253720E1,-1.276412487E0,-2.914449930E0,-1.381049991E0
1.365253720E1,-1.111549973E0,-2.985262394E0,-1.120762467E0
1.367253720E1,-1.071125031E0,-3.167312384E0,-1.032899976E0
1.369253720E1,-1.211650014E0,-3.421412468E0,-1.124475002E0
1.371253720E1,-1.265412450E0,-3.415362597E0,-1.107424974E0
1.373253720E1,-1.217837453E0,-3.205262423E0,-8.716124892E-1
1.375253720E1,-1.361937523E0,-3.048787594E0,-6.540874839E-1
1.377253720E1,-1.269124985E0,-3.299312592E0,-8.288499713E-1
1.379253720E1,-9.209749699E-1,-3.493599892E0,-8.276125193E-1
1.381253720E1,-9.649749994E-1,-3.425124884E0,-6.700375080E-1
1.383253720E1,-1.052837491E0,-3.028024912E0,-3.840374947E-1
1.385253720E1,-8.134499788E-1,-3.146549940E0,-3.169375062E-1
1.387253720E1,-9.722625017E-1,-3.237025023E0,-4.072749913E-1
1.389253720E1,-9.710249901E-1,-3.103787422E0,-3.902249932E-1
1.391253720E1,-6.338750124E-1,-3.117262602E0,-2.912249863E-1
1.393253720E1,-6.411625147E-1,-3.042737484E0,-2.496999949E-1
1.395253720E1,-7.792124748E-1,-2.816687584E0,-3.401750028E-1
1.397253720E1,-5.666375160E-1,-2.893687487E0,-4.158000052E-1
1.399253720E1,-4.786374867E-1,-2.925450087E0,-3.584625125E-1
1.401253720E1,-8.512625098E-1,-2.736112595E0,-3.389374912E-1
1.403253720E1,-1.016262531E0,-2.467299938E0,-4.365625083E-1
1.405253720E1,-5.055875182E-1,-2.554062605E0,-4.452250004E-1
1.407253720E1,-2.745875120E-1,-2.701874971E0,-3.584625125E-1
1.409253720E1,-7.291625142E-1,-2.537012577E0,-4.195125103E-1
1.411253720E1,-1.051599979E0,-2.310962439E0,-5.698000193E-1
1.413253720E1,-8.366875052E-1,-2.238912582E0,-5.856124759E-1
1.415253720E1,-4.200625122E-1,-2.375725031E0,-4.512749910E-1
1.417253720E1,-5.861625075E-1,-2.554062605E0,-3.779875040E-1
1.419253720E1,-7.071624994E-1,-2.439249992E0,-3.559874892E-1
1.421253720E1,-6.766374707E-1,-2.398962498E0,-3.267000020E-1
1.423253720E1,-5.336375237E-1,-2.436774969E0,-2.106499970E-1
1.425253720E1,-4.701125026E-1,-2.651824951E0,-5.912499875E-2
1.427253720E1,-4.958249927E-1,-2.759350061E0,4.468749836E-2
1.429253720E1,-5.238749981E-1,-2.682349920E0,2.763750032E-2
1.431253720E1,-5.751624703E-1,-2.383012533E0,-2.887499984E-3
1.433253720E1,-7.877374887E-1,-2.180200100E0,-3.588749841E-2
1.435253720E1,-9.294999838E-1,-2.216912508E0,-5.912499875E-2
1.437253720E1,-6.606875062E-1,-2.345200062E0,-5.362499971E-3
1.439253720E1,-1.915374994E-1,-2.312200069E0,1.229249984E-1
1.441253720E1,-2.367749959E-1,-2.213200092E0,2.255000025E-1
1.443253720E1,-3.003000021E-1,-2.259675026E0,1.949750036E-1
1.445253720E1,-6.399250031E-1,-2.353724957E0,-4.124999978E-3
1.447253720E1,-5.581125021E-1,-2.134962559E0,1.033999994E-1
1.449253720E1,-5.018749833E-1,-2.154624939E0,7.163749635E-2
1.451253720E1,-4.763000011E-1,-2.226675034E0,4.235000163E-2
1.453253720E1,-3.480125070E-1,-2.317012548E0,4.963750020E-2
1.455253720E1,-2.012999952E-1,-2.435537577E0,8.016250283E-2
1.457253720E1,-2.770625055E-1,-2.590775013E0,1.926375031E-1
1.459253720E1,-6.021124721E-1,-2.725112438E0,3.647874892E-1
1.461253720E1,-7.352125049E-1,-2.717824936E0,3.025000095E-1
1.463253720E1,-7.449749708E-1,-2.557775021E0,8.868750185E-2
1.465253720E1,-5.946875215E-1,-2.362250090E0,2.392499894E-2
1.467253720E1,-3.332999945E-1,-2.291437387E0,9.611249715E-2
1.469253720E1,-2.220624983E-1,-2.262012482E0,1.436875015E-1
1.471253720E1,-3.308250010E-1,-2.073912382E0,9.363749623E-2
1.473253720E1,-5.336375237E-1,-1.833287477E0,5.816249922E-2
1.475253720E1,-6.472125053E-1,-1.681762457E0,9.363749623E-2
1.477253720E1,-6.386874914E-1,-1.582762480E0,1.571625024E-1
1.479253720E1,-5.861625075E-1,-1.499712467E0,1.815000027E-1
1.481253720E1,-5.373499990E-1,-1.351899981E0,1.314499974E-1
1.483253720E1,-4.921124876E-1,-1.251662493E0,1.143999994E-1
1.485253720E1,-4.248749912E-1,-1.193087459E0,1.889249980E-1
1.487253720E1,-3.075875044E-1,-1.178375006E0,2.657875121E-1
1.489253720E1,-2.123000026E-1,-1.272424936E0,3.147374988E-1
1.491253720E1,-1.805374920E-1,-1.390949965E0,2.744500041E-1
1.493253720E1,-1.707749963E-1,-1.361662507E0,1.864500046E-1
1.495253720E1,-9.996250272E-2,-1.343374968E0,9.721250087E-2
1.497253720E1,-9.487500414E-3,-1.283424973E0,3.739999980E-2
1.499253720E1,7.727500051E-2,-1.372662544E0,-8.236250281E-2
1.501253720E1,9.679999948E-2,-1.907812476E0,-3.327499926E-1
1.503253720E1,-3.443000019E-1,-2.025099993E0,-5.282750130E-1
1.505253720E1,-7.975000143E-1,-1.744050026E0,-5.160375237E-1
1.507253720E1,-1.066312551E0,-1.526662469E0,-3.914625049E-1
1.509253720E1,-9.930250049E-1,-1.229662538E0,-2.167000026E-1
1.511253720E1,-7.522624731E-1,-9.414625168E-1,-2.021249980E-1
1.513253720E1,-2.623499930E-1,-4.503124952E-1,-2.814624906E-1
1.515253720E1,1.856249943E-2,6.036249921E-2,-2.509374917E-1
1.517253720E1,1.933249980E-1,6.309875250E-1,-2.094125003E-1
1.519253720E1,2.921875119E-1,1.057374954E0,-1.495999992E-1
1.521253720E1,2.946625054E-1,1.378574967E0,1.044999994E-2
1.523253720E1,4.839999974E-1,1.658387542E0,1.876875013E-1
1.525253720E1,7.723374963E-1,1.831912518E0,3.134999871E-1
1.527253720E1,9.189124703E-1,1.831912518E0,4.955500066E-1
1.529253720E1,9.800999761E-1,1.908912539E0,5.798375010E-1
1.531253720E1,9.678624868E-1,1.929674983E0,5.297874808E-1
1.533253720E1,8.408125043E-1,1.864912510E0,3.757874966E-1
1.535253720E1,6.978124976E-1,1.873437524E0,2.792625129E-1
1.537253720E1,6.147624850E-1,1.866150022E0,3.012624979E-1
1.539253720E1,5.659499764E-1,1.693862438E0,4.148375094E-1
1.541253720E1,5.402374864E-1,1.396999955E0,5.468375087E-1
1.543253720E1,4.950000048E-1,1.114712477E0,5.956500173E-1
1.545253720E1,3.924250007E-1,1.206424952E0,5.297874808E-1
1.547253720E1,4.278999865E-1,1.557049990E0,4.588375092E-1
1.549253720E1,5.402374864E-1,1.872200012E0,4.723125100E-1
1.551253720E1,6.245250106E-1,2.117774963E0,5.077875257E-1
1.553253720E1,6.184750199E-1,2.299824953E0,4.465999901E-1
1.555253720E1,6.514750123E-1,2.530687571E0,3.697375059E-1
1.557253720E1,7.613375187E-1,2.613737583E0,3.537875116E-1
1.559253720E1,9.116249681E-1,2.559974909E0,3.672625124E-1
1.561253720E1,9.861499667E-1,2.491637468E0,2.865499854E-1
1.563253720E1,1.009387493E0,2.480637550E0,1.277374923E-1
1.565253720E1,1.097387552E0,2.341350079E0,3.368749842E-2
1.567253720E1,1.058200002E0,2.147062540E0,-5.664999783E-2
1.569253720E1,8.322874904E-1,2.020012379E0,-1.629374921E-1
1.571253720E1,6.050000191E-1,1.963775039E0,-2.314125001E-1
1.573253720E1,4.534749985E-1,2.054250002E0,-3.742749989E-1
1.575253720E1,3.753750026E-1,2.258300066E0,-4.867500067E-1
1.577253720E1,3.631374836E-1,2.299824953E0,-5.123249888E-1
1.579253720E1,2.433750033E-1,2.304637432E0,-6.040375233E-1
1.581253720E1,1.615625024E-1,2.360874891E0,-6.150375009E-1
1.583253720E1,1.443749964E-1,2.307112455E0,-5.465624928E-1
1.585253720E1,7.232499868E-2,2.215537548E0,-4.415124953E-1
1.587253720E1,1.956624985E-1,2.164249897E0,-3.535124958E-1
1.589253720E1,3.326124847E-1,2.148299932E0,-2.154625058E-1
1.591253720E1,3.081375062E-1,2.304637432E0,-1.006499976E-1
1.593253720E1,2.678500116E-1,2.436637402E0,1.663750038E-2
1.595253720E1,3.984749913E-1,2.525875092E0,1.094499975E-1
1.597253720E1,6.697624922E-1,2.556400061E0,4.468749836E-2
1.599253720E1,6.734749675E-1,2.542924881E0,-5.912499875E-2
1.601253720E1,4.522374868E-1,2.612499952E0,4.399999976E-3
1.603253720E1,3.228499889E-1,2.559974909E0,1.375000030E-1
1.605253720E1,2.311374992E-1,2.583212376E0,2.217874974E-1
1.607253720E1,2.641375065E-1,2.661449909E0,3.012624979E-1
1.609253720E1,2.250874937E-1,2.808024883E0,3.660250008E-1
1.611253720E1,-4.674999975E-3,3.123174906E0,3.880249858E-1
1.613253720E1,-2.892999947E-1,3.599750042E0,5.285499692E-1
1.615253720E1,-2.990624905E-1,4.136000156E0,9.512249827E-1
1.617253720E1,2.030874938E-1,4.500100136E0,1.563237548E0
1.619253720E1,1.009387493E0,4.595387459E0,2.203437567E0
1.621253720E1,1.290437460E0,4.688199997E0,2.273149967E0
1.623253720E1,1.108387470E0,4.887437344E0,2.020149946E0
1.625253720E1,8.628125191E-1,5.195300102E0,1.928575039E0
1.627253720E1,1.000862479E0,5.391924858E0,2.350012541E0
1.629253720E1,1.788874984E0,5.220874786E0,3.034212589E0
1.631253720E1,2.444887400E0,4.778675079E0,3.217499971E0
1.633253720E1,2.838274956E0,4.359574795E0,2.984162569E0
1.635253720E1,2.857800007E0,3.856187582E0,2.532062531E0
1.637253720E1,2.559700012E0,3.646087408E0,2.232724905E0
1.639253720E1,2.009974957E0,3.764612436E0,1.824762464E0
1.641253720E1,1.590875030E0,3.923424959E0,1.448424935E0
1.643253720E1,1.544537544E0,4.093237400E0,1.338562489E0
1.645253720E1,1.956212521E0,3.803662539E0,1.152799964E0
1.647253720E1,2.201787472E0,3.148887396E0,7.386500239E-1
1.649253720E1,1.697162509E0,2.667500019E0,2.487374991E-1
1.651253720E1,1.005674958E0,2.844737530E0,5.578374863E-1
1.653253720E1,9.946749806E-1,2.981549978E0,7.301250100E-1
1.655253720E1,1.670349956E0,2.704212427E0,1.149087548E0
1.657253720E1,2.662412405E0,2.125062466E0,1.717237473E0
1.659253720E1,3.441762447E0,1.372524977E0,2.060575008E0
1.661253720E1,3.209662437E0,7.665625215E-1,1.781999946E0
1.663253720E1,1.357537508E0,-5.637499969E-3,9.707499743E-1
1.665253720E1,-9.673125148E-1,-8.888000250E-1,4.839999974E-2
1.667253720E1,-2.160949945E0,-1.774574995E0,-8.190875053E-1
1.669253720E1,-2.251425028E0,-2.574825048E0,-1.381049991E0
1.671253720E1,-1.828612447E0,-3.142975092E0,-1.555675030E0
1.673253720E1,-1.536700010E0,-3.383599997E0,-1.525149941E0
1.675253720E1,-1.460937500E0,-3.571700096E0,-1.376099944E0
1.677253720E1,-1.584275007E0,-3.740274906E0,-1.252762437E0
1.679253720E1,-1.701562524E0,-4.058037281E0,-1.189237475E0
1.681253720E1,-1.785850048E0,-4.018849850E0,-9.044749737E-1
1.683253720E1,-1.675987482E0,-3.817275047E0,-7.628499866E-1
1.685253720E1,-1.371700048E0,-4.022562504E0,-7.799000144E-1
1.687253720E1,-1.517174959E0,-4.051849842E0,-7.530875206E-1
1.689253720E1,-1.912899971E0,-3.822225094E0,-7.261375189E-1
1.691253720E1,-1.961850047E0,-3.466650009E0,-7.188500166E-1
1.693253720E1,-1.331412435E0,-3.400650024E0,-6.675624847E-1
1.695253720E1,-9.222124815E-1,-3.618175030E0,-5.220875144E-1
1.697253720E1,-1.087074995E0,-3.734225035E0,-4.927999973E-1
1.699253720E1,-1.840849996E0,-3.535125017E0,-6.296125054E-1
1.701253720E1,-2.219662428E0,-3.068449974E0,-7.469000220E-1
1.703253720E1,-1.525699973E0,-2.880212545E0,-5.930374861E-1
1.705253720E1,-7.706875205E-1,-3.169787407E0,-3.755125105E-1
1.707253720E1,-5.116375089E-1,-3.539937496E0,-3.474625051E-1
1.709253720E1,-8.060249686E-1,-3.474075079E0,-3.767499924E-1
1.711253720E1,-1.430412531E0,-3.114787579E0,-4.879874885E-1
1.713253720E1,-1.399887443E0,-3.114787579E0,-5.845124722E-1
1.715253720E1,-1.090787530E0,-3.469125032E0,-7.676625252E-1
1.717253720E1,-1.286175013E0,-3.510649920E0,-7.688999772E-1
1.719253720E1,-1.238600016E0,-3.433650017E0,-5.868499875E-1
1.721253720E1,-8.232125044E-1,-3.580362558E0,-3.962749839E-1
1.723253720E1,-1.161599994E0,-3.763512373E0,-5.685625076E-1
1.725253720E1,-2.253762484E0,-3.587650061E0,-8.508499861E-1
1.727253720E1,-1.966662526E0,-3.367650032E0,-7.323250175E-1
1.729253720E1,-6.973999739E-1,-3.494837523E0,-3.327499926E-1
1.731253720E1,-3.198249936E-1,-3.740274906E0,-2.032250017E-1
1.733253720E1,-1.018599987E0,-3.566887379E0,-2.496999949E-1
1.735253720E1,-1.573274970E0,-3.089212418E0,-3.095124960E-1
1.737253720E1,-1.390125036E0,-2.849687576E0,-3.107500076E-1
1.739253720E1,-7.474499941E-1,-2.999974966E0,-8.359999955E-2
1.741253720E1,-2.697750032E-1,-3.028024912E0,1.864500046E-1
1.743253720E1,1.297999918E-1,-2.772687435E0,5.310249925E-1
1.745253720E1,1.419000030E-1,-3.199074984E0,3.709749877E-1
1.747253720E1,-5.178250074E-1,-2.847212553E0,7.411249727E-2
1.749253720E1,-1.178650022E0,-2.209487438E0,3.011249937E-2
1.751253720E1,-1.095600009E0,-1.977387547E0,2.524499893E-1
1.753253720E1,-4.970625043E-1,-2.183912516E0,6.153125167E-1
1.755253720E1,6.008749828E-2,-2.353724957E0,7.801749706E-1
1.757253720E1,-1.011999995E-1,-2.108150005E0,4.625499845E-1
1.759253720E1,-7.107374668E-1,-1.642712474E0,7.644999772E-2
1.761253720E1,-1.280125022E0,-1.304187536E0,-1.568875015E-1
1.763253720E1,-1.475649953E0,-1.215087533E0,-1.067000031E-1
1.765253720E1,-1.134787440E0,-1.509474993E0,1.706375033E-1
1.767253720E1,-4.212999940E-1,-1.860100031E0,3.097875118E-1
1.769253720E1,-1.463000029E-1,-1.849099994E0,1.986874938E-1
1.771253720E1,-2.307250053E-1,-1.640237451E0,8.992499858E-2
1.773253720E1,-4.371125102E-1,-1.443475008E0,3.616249934E-2
1.775253720E1,-5.678749681E-1,-1.360424995E0,-2.007500082E-2
1.777253720E1,-6.558749676E-1,-1.318899989E0,-1.116499975E-1
1.779253720E1,-7.096375227E-1,-1.346949935E0,-2.496999949E-1
1.781253720E1,-6.814500093E-1,-1.482662439E0,-4.573250115E-1
1.783253720E1,-7.572125196E-1,-1.576712489E0,-5.880874991E-1
1.785253720E1,-8.684499860E-1,-1.618237495E0,-6.711375117E-1
1.787253720E1,-9.197375178E-1,-1.692762494E0,-8.031374812E-1
1.789253720E1,-9.795500040E-1,-1.701287508E0,-7.946124673E-1
1.791253720E1,-9.587875009E-1,-1.774574995E0,-6.968500018E-1
1.793253720E1,-8.634999990E-1,-1.888287544E0,-5.660874844E-1
1.795253720E1,-8.354499936E-1,-1.836862445E0,-4.683249891E-1
1.797253720E1,-7.792124748E-1,-1.680524945E0,-4.647499919E-1
1.799253720E1,-6.754000187E-1,-1.640237451E0,-4.109874964E-1
1.801253720E1,-5.421624780E-1,-1.893100023E0,-3.852750063E-1
1.803253720E1,-5.006374717E-1,-2.112962484E0,-3.449875116E-1
1.805253720E1,-5.959249735E-1,-2.282774925E0,-3.779875040E-1
1.807253720E1,-7.022125125E-1,-2.193675041E0,-4.023250043E-1
1.809253720E1,-8.012124896E-1,-2.205912590E0,-3.588749841E-2
1.811253720E1,-1.830125004E-1,-1.580425024E0,-1.993750036E-2
1.813253720E1,4.571875036E-1,-1.166137457E0,-1.544124931E-1
1.815253720E1,7.357624769E-1,-6.151750088E-1,-3.144625127E-1
1.817253720E1,6.257625222E-1,6.036249921E-2,-1.861750036E-1
1.819253720E1,2.971374989E-1,2.204124928E-1,-1.031249985E-1
1.821253720E1,1.773750037E-1,1.787499990E-3,-4.317500070E-2
1.823253720E1,2.458499968E-1,-1.179749966E-1,1.596374959E-1
1.825253720E1,3.521375060E-1,1.581249982E-1,3.880249858E-1
1.827253720E1,3.471874893E-1,4.965125024E-1,5.615500212E-1
1.829253720E1,1.223749965E-1,7.726125121E-1,4.564999938E-1
1.831253720E1,-2.270125002E-1,1.334574938E0,1.779250056E-1
1.833253720E1,-2.062499970E-1,1.625387549E0,9.968750179E-2
1.835253720E1,8.937499672E-2,1.789150000E0,2.609750032E-1
1.837253720E1,4.547125101E-1,1.778149962E0,6.043124795E-1
1.839253720E1,5.878124833E-1,1.719437480E0,7.790749669E-1
1.841253720E1,5.964750051E-1,1.936962485E0,7.668374777E-1
1.843253720E1,6.513375044E-1,2.174012423E0,7.900750041E-1
1.845253720E1,7.858124971E-1,2.270537376E0,9.549375176E-1
1.847253720E1,9.494374990E-1,2.147062540E0,1.050225019E0
1.849253720E1,1.199962497E0,1.934487462E0,9.316999912E-1
1.851253720E1,1.284250021E0,1.850199938E0,4.785000086E-1
1.853253720E1,1.191437483E0,2.007775068E0,3.134999871E-1
1.855253720E1,1.143725038E0,2.089587450E0,3.562625051E-1
1.857253720E1,1.204774976E0,2.120249987E0,3.917374909E-1
1.859253720E1,1.311062455E0,2.116537571E0,2.719750106E-1
1.861253720E1,1.323300004E0,2.131249905E0,7.039999962E-2
1.863253720E1,1.335537434E0,2.215537548E0,5.582499877E-2
1.865253720E1,1.358775020E0,2.230112553E0,7.535000145E-2
1.867253720E1,1.363587499E0,2.296112537E0,-3.093750030E-2
1.869253720E1,1.305012465E0,2.417112589E0,-1.494625062E-1
1.871253720E1,1.234200001E0,2.595449924E0,-1.861750036E-1
1.873253720E1,1.155962467E0,2.647974968E0,-1.579875052E-1
1.875253720E1,9.861499667E-1,2.822737455E0,-3.865124881E-1
1.877253720E1,8.651499748E-1,3.151362419E0,-5.293750167E-1
1.879253720E1,7.991499901E-1,3.365175009E0,-4.377999902E-1
1.881253720E1,9.043374658E-1,3.536225080E0,-3.767499924E-1
1.883253720E1,1.197487473E0,3.570324898E0,-6.173750162E-1
1.885253720E1,1.180437446E0,3.649800062E0,-7.541875243E-1
1.887253720E1,1.030149937E0,3.802424908E0,-6.443250179E-1
1.889253720E1,9.959124923E-1,3.782900095E0,-5.368000269E-1
1.891253720E1,1.202437520E0,3.663275003E0,-5.123249888E-1
1.893253720E1,1.511537433E0,3.531275034E0,-5.380374789E-1
1.895253720E1,1.644637465E0,3.538562536E0,-5.428500175E-1
1.897253720E1,1.771687508E0,3.550800085E0,-4.230875075E-1
1.899253720E1,1.747212529E0,3.475037575E0,-3.485625088E-1
1.901253720E1,1.484587550E0,3.482462406E0,-2.960374951E-1
1.903253720E1,1.317250013E0,3.481225014E0,-2.105125040E-1
1.905253720E1,1.268299937E0,3.456749916E0,-5.046249926E-2
1.907253720E1,1.055724978E0,3.418937445E0,2.516249940E-2
1.909253720E1,8.236249685E-1,3.446987391E0,4.399999976E-3
1.911253720E1,8.003875017E-1,3.500750065E0,4.963750020E-2
1.913253720E1,8.333874941E-1,3.592324972E0,1.326874942E-1
1.915253720E1,7.015249729E-1,3.822087526E0,2.279749960E-1
1.917253720E1,6.415749788E-1,3.831850052E0,2.964499891E-1
1.919253720E1,4.046624899E-1,3.846425056E0,2.976875007E-1
1.921253720E1,1.199000031E-1,3.902662516E0,2.512125075E-1
1.923253720E1,6.379999965E-2,3.978425026E0,3.221625090E-1
1.925253720E1,2.921875119E-1,3.804899931E0,6.043124795E-1
1.927253720E1,6.183375120E-1,3.641274929E0,8.828874826E-1
1.929253720E1,7.748125196E-1,3.505562544E0,1.077175021E0
1.931253720E1,7.552874684E-1,3.503225088E0,1.183462501E0
1.933253720E1,7.442874908E-1,3.367512465E0,1.281087518E0
1.935253720E1,8.553875089E-1,3.246649981E0,1.367849946E0
1.937253720E1,9.934374690E-1,3.238125086E0,1.415562510E0
1.939253720E1,1.058200002E0,3.228224993E0,1.463137507E0
1.941253720E1,1.281774998E0,3.148887396E0,1.538900018E0
1.943253720E1,1.208487511E0,3.004649878E0,1.239562511E0
1.945253720E1,9.336249828E-1,2.848312378E0,9.549375176E-1
1.947253720E1,6.648125052E-1,2.991312504E0,8.498874903E-1
1.949253720E1,8.835750222E-1,3.140362501E0,7.411249876E-1
1.951253720E1,9.836750031E-1,3.229462385E0,9.073625207E-1
1.953253720E1,1.053387523E0,3.300412416E0,1.097937465E0
1.955253720E1,1.292775035E0,3.068312407E0,1.045412540E0
1.957253720E1,1.069200039E0,2.601500034E0,7.643625140E-1
1.959253720E1,4.802874923E-1,2.514874935E0,5.090249777E-1
1.961253720E1,-1.134374961E-1,2.734737396E0,4.943124950E-1
1.963253720E1,-5.912499968E-3,2.732262373E0,7.033125162E-1
1.965253720E1,5.780500174E-1,2.296112537E0,1.041700006E0
1.967253720E1,1.334300041E0,1.587574959E0,1.308037519E0
1.969253720E1,1.622637510E0,8.141375184E-1,1.244512439E0
1.971253720E1,9.824374914E-1,3.719374835E-1,8.388875127E-1
1.973253720E1,8.813749999E-2,-8.992499858E-2,3.012624979E-1
1.975253720E1,-5.116375089E-1,-9.389874935E-1,-3.009875119E-1
1.977253720E1,-7.816874981E-1,-1.878525019E0,-7.591375113E-1
1.979253720E1,-6.619250178E-1,-2.449012518E0,-8.886625171E-1
1.981253720E1,-3.565374911E-1,-2.644537449E0,-8.812375069E-1
1.983253720E1,-2.099625021E-1,-2.848449945E0,-8.909999728E-1
1.985253720E1,-3.785375059E-1,-3.065974951E0,-1.091475010E0
1.987253720E1,-6.656374931E-1,-3.079449892E0,-1.322337508E0
1.989253720E1,-9.332125187E-1,-2.758112431E0,-1.343099952E0
1.991253720E1,-9.612625241E-1,-2.610300064E0,-1.091475010E0
1.993253720E1,-9.662125111E-1,-2.734874964E0,-8.568999767E-1
1.995253720E1,-8.354499936E-1,-3.179549932E0,-9.374749660E-1
1.997253720E1,-9.747374654E-1,-3.480124950E0,-1.119524956E0
1.999253720E1,-1.287412524E0,-3.229737520E0,-1.070712447E0
2.001253720E1,-1.139600039E0,-2.984162569E0,-8.617125154E-1
2.003253720E1,-7.975000143E-1,-3.141737461E0,-7.151374817E-1
2.005253720E1,-7.437375188E-1,-3.554650068E0,-7.823749781E-1
2.007253720E1,-1.111549973E0,-3.660937548E0,-8.458999991E-1
2.009253720E1,-1.374174953E0,-3.423887491E0,-7.383750081E-1
2.011253720E1,-1.252074957E0,-3.276074886E0,-5.330874920E-1
2.013253720E1,-1.049262524E0,-3.370125055E0,-4.988499880E-1
2.015253720E1,-1.001549959E0,-3.591362476E0,-6.223250031E-1
2.017253720E1,-1.364412546E0,-3.679224968E0,-7.554249763E-1
2.019253720E1,-1.628275037E0,-3.460599899E0,-7.224249840E-1
2.021253720E1,-1.230075002E0,-3.299312592E0,-5.953750014E-1
2.023253720E1,-9.857375026E-1,-3.386075020E0,-5.868499875E-1
2.025253720E1,-1.106600046E0,-3.599887371E0,-6.601374745E-1
2.027253720E1,-1.322887540E0,-3.439837456E0,-6.808999777E-1
2.029253720E1,-1.274075031E0,-3.259025097E0,-6.186124682E-1
2.031253720E1,-8.452125192E-1,-3.410549879E0,-5.123249888E-1
2.033253720E1,-6.876375079E-1,-3.549700022E0,-4.842749834E-1
2.035253720E1,-8.244500160E-1,-3.438600063E0,-5.220875144E-1
2.037253720E1,-8.989750147E-1,-3.309074879E0,-4.743750095E-1
2.039253720E1,-9.747374654E-1,-3.183262587E0,-4.830375016E-1
2.041253720E1,-1.127362490E0,-3.072025061E0,-5.598999858E-1
2.043253720E1,-9.722625017E-1,-3.139262438E0,-5.013250113E-1
2.045253720E1,-7.669749856E-1,-3.237025023E0,-3.400374949E-1
2.047253720E1,-7.291625142E-1,-3.257787466E0,-2.752749920E-1
2.049253720E1,-9.074999690E-1,-3.129499912E0,-3.767499924E-1
2.051253720E1,-9.405000210E-1,-2.999974966E0,-3.730374873E-1
2.053253720E1,-7.926874757E-1,-3.141737461E0,-2.459875047E-1
2.055253720E1,-7.536374927E-1,-3.135550022E0,-7.988750190E-2
2.057253720E1,-7.084000111E-1,-2.887637377E0,-5.293750018E-2
2.059253720E1,-5.923500061E-1,-2.529587507E0,-4.441250116E-2
2.061253720E1,-4.298250079E-1,-2.466062546E0,1.083500013E-1
2.063253720E1,-2.417249978E-1,-2.617587566E0,4.894999862E-1
2.065253720E1,1.528999954E-1,-2.705587387E0,7.155500054E-1
2.067253720E1,1.896124929E-1,-3.024450064E0,6.690750122E-1
2.069253720E1,1.979999989E-2,-2.817924976E0,6.312624812E-1
2.071253720E1,-2.660624981E-1,-2.579775095E0,5.469750166E-1
2.073253720E1,-3.662999868E-1,-2.373250008E0,3.526875079E-1
2.075253720E1,-3.955875039E-1,-2.452724934E0,2.964499891E-1
2.077253720E1,-4.713499844E-1,-2.499062538E0,3.832125068E-1
2.079253720E1,-5.422999859E-1,-2.559012413E0,5.372124910E-1
2.081253720E1,-5.446375012E-1,-2.568774939E0,6.043124795E-1
2.083253720E1,-4.530625045E-1,-2.456300020E0,5.152124763E-1
2.085253720E1,-3.907749951E-1,-2.220487595E0,3.184500039E-1
2.087253720E1,-3.932499886E-1,-2.176625013E0,3.148750067E-1
2.089253720E1,-3.870624900E-1,-2.169199944E0,3.564000130E-1
2.091253720E1,-3.883000016E-1,-2.159437418E0,3.319250047E-1
2.093253720E1,-4.665375054E-1,-2.067862511E0,2.316875011E-1
2.095253720E1,-7.401624918E-1,-1.758762479E0,4.853750020E-2
2.097253720E1,-8.219749928E-1,-1.571762443E0,-1.993750036E-2
2.099253720E1,-7.731624842E-1,-1.524187446E0,-1.993750036E-2
2.101253720E1,-7.011125088E-1,-1.554712534E0,3.299999982E-3
2.103253720E1,-7.206375003E-1,-1.585237503E0,-2.887499984E-3
2.105253720E1,-7.926874757E-1,-1.598712444E0,-6.641250104E-2
2.107253720E1,-8.354499936E-1,-1.609712481E0,-1.115124971E-1
2.109253720E1,-7.816874981E-1,-1.648762465E0,-6.764999777E-2
2.111253720E1,-6.973999739E-1,-1.701287508E0,7.411249727E-2
2.113253720E1,-6.131125093E-1,-1.717237473E0,2.463999987E-1
2.115253720E1,-4.567750096E-1,-1.652474999E0,3.783999979E-1
2.117253720E1,-2.147749960E-1,-1.522949934E0,4.614500105E-1
2.119253720E1,2.584999986E-2,-1.411712527E0,4.382124841E-1
2.121253720E1,2.311374992E-1,-1.339662552E0,4.772624969E-1
2.123253720E1,3.972375095E-1,-1.282325029E0,6.665999889E-1
2.125253720E1,5.120499730E-1,-1.388612509E0,7.728874683E-1
2.127253720E1,3.471874893E-1,-1.180850029E0,6.715499759E-1
2.129253720E1,8.208750188E-2,-8.302249908E-1,6.862624884E-1
2.131253720E1,-9.624999948E-3,-7.532249689E-1,3.099249899E-1
2.133253720E1,1.809500009E-1,-7.202249765E-1,9.487500042E-2
2.135253720E1,2.714250088E-1,-4.746499956E-1,-5.651250109E-2
2.137253720E1,3.068999946E-1,-7.273750007E-2,-2.887499928E-1
2.139253720E1,3.361875117E-1,-3.973750025E-2,-1.922249943E-1
2.141253720E1,2.444749922E-1,-1.754499972E-1,-2.362249941E-1
2.143253720E1,5.389999971E-2,-4.111250043E-1,-3.192749918E-1
2.145253720E1,-1.904374957E-1,-4.050749838E-1,-4.768500030E-1
2.147253720E1,-4.065875113E-1,1.278750040E-2,-8.116624951E-1
2.149253720E1,-4.347749949E-1,1.483625025E-1,-8.787624836E-1
2.151253720E1,-3.638249934E-1,1.606000066E-1,-6.589000225E-1
2.153253720E1,-2.710124850E-1,4.379374981E-1,-5.196124911E-1
2.155253720E1,-3.382500112E-1,6.810374856E-1,-4.060375094E-1
2.157253720E1,-4.310624897E-1,9.266124964E-1,-3.388000131E-1
2.159253720E1,-5.776374936E-1,1.491050005E0,-1.616999954E-1
2.161253720E1,-5.813499689E-1,2.042012453E0,-1.469874978E-1
2.163253720E1,-5.715875030E-1,2.446399927E0,-1.005124971E-1
2.165253720E1,-4.725874960E-1,2.732262373E0,6.311249733E-2
2.167253720E1,-3.015374839E-1,2.916787386E0,2.513499856E-1
2.169253720E1,-5.596249923E-2,3.016887426E0,3.282124996E-1
2.171253720E1,2.359499931E-1,2.812837601E0,1.156374961E-1
2.173253720E1,5.097125173E-1,2.655262470E0,-5.293750018E-2
2.175253720E1,6.660500169E-1,2.716449976E0,-5.169999972E-2
2.177253720E1,7.026249766E-1,2.853262424E0,-5.224999972E-3
2.179253720E1,7.283374667E-1,2.844737530E0,1.583999991E-1
2.181253720E1,7.650499940E-1,2.619925022E0,2.928749919E-1
2.183253720E1,8.395749927E-1,2.559974909E0,1.608749926E-1
2.185253720E1,9.739124775E-1,2.665024996E0,8.139999956E-2
2.187253720E1,1.143725038E0,2.693212509E0,1.803999990E-1
2.189253720E1,1.171774983E0,2.778737545E0,2.206874937E-1
2.191253720E1,9.971500039E-1,3.058412552E0,1.339250058E-1
2.193253720E1,8.663874865E-1,3.406699896E0,-5.541250110E-2
2.195253720E1,7.295749784E-1,3.668087482E0,-2.264624983E-1
2.197253720E1,7.075750232E-1,3.703562498E0,-2.508000135E-1
2.199253720E1,8.053374887E-1,3.548325062E0,-1.897500008E-1
2.201253720E1,8.053374887E-1,3.611850023E0,-3.437500000E-1
2.203253720E1,6.795250177E-1,3.944187403E0,-4.120875001E-1
2.205253720E1,6.183375120E-1,4.223999977E0,-3.510375023E-1
2.207253720E1,6.672874689E-1,4.304574966E0,-2.715624869E-1
2.209253720E1,8.309124708E-1,4.211762428E0,-1.005124971E-1
2.211253720E1,1.091199994E0,4.035900116E0,6.558749825E-2
2.213253720E1,1.319587469E0,3.934424877E0,1.095874980E-1
2.215253720E1,1.303774953E0,3.993137360E0,1.596374959E-1
2.217253720E1,1.152250051E0,4.200762272E0,2.719750106E-1
2.219253720E1,9.959124923E-1,4.352287292E0,4.014999866E-1
2.221253720E1,1.132725000E0,4.245999813E0,5.372124910E-1
2.223253720E1,1.210962534E0,3.931950092E0,5.823125243E-1
2.225253720E1,1.010625005E0,3.936899900E0,6.300249696E-1
2.227253720E1,8.493375182E-1,4.098187447E0,6.788374782E-1
2.229253720E1,1.121724963E0,4.085949898E0,8.548374772E-1
2.231253720E1,1.425874949E0,3.898949862E0,9.513624907E-1
2.233253720E1,1.443062544E0,3.710850000E0,9.671750069E-1
2.235253720E1,1.262249947E0,3.610612392E0,9.526000023E-1
2.237253720E1,1.081437469E0,3.637562513E0,9.220749736E-1
2.239253720E1,8.076750040E-1,3.626562595E0,8.915500045E-1
2.241253720E1,7.576249838E-1,3.580087423E0,9.318374991E-1
2.243253720E1,9.567250013E-1,3.457987547E0,1.063699961E0
2.245253720E1,1.170537472E0,3.383462429E0,1.211512446E0
2.247253720E1,1.252487540E0,3.333412409E0,1.303225040E0
2.249253720E1,1.215775013E0,3.252700090E0,1.194462538E0
2.251253720E1,1.044724941E0,3.181887388E0,1.042937517E0
2.253253720E1,9.849125147E-1,3.152600050E0,1.063699961E0
2.255253720E1,1.220724940E0,3.069412470E0,1.195700049E0
2.257253720E1,1.397825003E0,3.049887419E0,1.326462507E0
2.259253720E1,1.428349972E0,3.073124886E0,1.342275023E0
2.261253720E1,1.313537478E0,2.976599932E0,1.162699938E0
2.263253720E1,9.567250013E-1,2.882550001E0,7.790749669E-1
2.265253720E1,3.691875041E-1,3.029124975E0,6.275500059E-1
2.267253720E1,1.566125005E-1,2.907025099E0,5.812125206E-1
2.269253720E1,2.934249938E-1,2.627212524E0,4.724499881E-1
2.271253720E1,5.560500026E-1,2.304637432E0,7.522624731E-1
2.273253720E1,7.088124752E-1,1.781725049E0,1.008837461E0
2.275253720E1,7.271000147E-1,1.332237482E0,7.998374701E-1
2.277253720E1,4.057624936E-1,1.329762459E0,5.517874956E-1
2.279253720E1,7.837499678E-2,1.365237474E0,3.221625090E-1
2.281253720E1,2.832499892E-2,1.190474987E0,2.611125112E-1
2.283253720E1,2.494249940E-1,7.958499789E-1,2.463999987E-1
2.285253720E1,4.839999974E-1,1.923625022E-1,1.791625023E-1
2.287253720E1,3.447124958E-1,-2.340250015E-1,4.235000163E-2
2.289253720E1,1.406625062E-1,-5.076500177E-1,-1.897500008E-1
2.291253720E1,-1.782000065E-1,-8.766999841E-1,-5.123249888E-1
2.293253720E1,-4.505875111E-1,-1.283424973E0,-7.174749970E-1
2.295253720E1,-4.237749875E-1,-1.696475029E0,-7.174749970E-1
2.297253720E1,-2.074874938E-1,-2.186387539E0,-5.476624966E-1
2.299253720E1,-3.210625052E-1,-2.557775021E0,-6.076124907E-1
2.301253720E1,-6.008750200E-1,-2.635874987E0,-7.174749970E-1
2.303253720E1,-7.743999958E-1,-2.672587395E0,-7.297124863E-1
2.305253720E1,-8.049250245E-1,-2.638350010E0,-6.454250216E-1
2.307253720E1,-7.364500165E-1,-2.576062441E0,-5.684249997E-1
2.309253720E1,-6.289250255E-1,-2.602874994E0,-5.000874996E-1
2.311253720E1,-5.215374827E-1,-2.621299982E0,-3.228499889E-1
2.313253720E1,-5.801125169E-1,-2.700637579E0,-3.045625091E-1
2.315253720E1,-6.826875210E-1,-2.866874933E0,-5.330874920E-1
2.317253720E1,-8.194999695E-1,-2.866874933E0,-6.626124978E-1
2.319253720E1,-9.112125039E-1,-2.686062574E0,-5.781875253E-1
2.321253720E1,-8.647375107E-1,-2.777637482E0,-4.695625007E-1
2.323253720E1,-8.929250240E-1,-3.058687449E0,-5.159000158E-1
2.325253720E1,-1.111549973E0,-3.349362373E0,-7.541875243E-1
2.327253720E1,-1.454887509E0,-3.223550081E0,-8.775249720E-1
2.329253720E1,-1.268025041E0,-2.959687471E0,-7.614749670E-1
2.331253720E1,-8.879749775E-1,-2.904687405E0,-4.731374979E-1
2.333253720E1,-8.819249868E-1,-3.226024866E0,-4.474250078E-1
2.335253720E1,-1.012687445E0,-3.294362545E0,-5.526124835E-1
2.337253720E1,-9.405000210E-1,-3.370125055E0,-6.759499907E-1
2.339253720E1,-1.079787493E0,-3.223550081E0,-6.734749675E-1
2.341253720E1,-1.463412523E0,-2.944974899E0,-7.126625180E-1
2.343253720E1,-1.161737442E0,-3.042737484E0,-7.309499979E-1
2.345253720E1,-6.631624699E-1,-3.340837479E0,-7.016624808E-1
2.347253720E1,-7.878749967E-1,-3.325025082E0,-7.859500051E-1
2.349253720E1,-1.263074994E0,-3.063499928E0,-1.016812444E0
2.351253720E1,-1.120074987E0,-2.991450071E0,-1.104812503E0
2.353253720E1,-8.892124891E-1,-3.003687382E0,-1.125574946E0
2.355253720E1,-1.037024975E0,-2.909637451E0,-1.153625011E0
2.357253720E1,-1.220312476E0,-2.760587454E0,-1.154862523E0
2.359253720E1,-8.452125192E-1,-2.819162369E0,-9.911000133E-1
2.361253720E1,-6.973999739E-1,-3.145312548E0,-1.018049955E0
2.363253720E1,-9.527375102E-1,-2.995162487E0,-9.679999948E-1
2.365253720E1,-7.426375151E-1,-2.903450012E0,-8.397125006E-1
2.367253720E1,-3.504875004E-1,-3.015924931E0,-7.064750195E-1
2.369253720E1,-3.137750030E-1,-2.915687561E0,-6.686624885E-1
2.371253720E1,-5.471125245E-1,-2.562587500E0,-6.807624698E-1
2.373253720E1,-5.593500137E-1,-2.534537554E0,-6.099500060E-1
2.375253720E1,-3.834874928E-1,-2.610300064E0,-5.329499841E-1
2.377253720E1,-3.553000093E-1,-2.584587574E0,-5.464249849E-1
2.379253720E1,-3.590124846E-1,-2.328012466E0,-4.999499917E-1
2.381253720E1,-1.451999992E-1,-2.306012392E0,-3.338499963E-1
2.383253720E1,1.381874979E-1,-2.447774887E0,-1.152250022E-1
2.385253720E1,2.567124963E-1,-2.368437529E0,8.249999955E-4
2.387253720E1,1.113750041E-2,-2.599299908E0,5.774999969E-3
2.389253720E1,-2.245374918E-1,-2.567537546E0,-8.951249719E-2
2.391253720E1,-3.418250084E-1,-2.379299879E0,-4.798749834E-2
2.393253720E1,-1.867250055E-1,-2.185149908E0,-4.124999978E-4
2.395253720E1,-1.292500049E-1,-2.262012482E0,-1.869999990E-2
2.397253720E1,-1.366750002E-1,-2.345200062E0,-5.541250110E-2
2.399253720E1,-1.439625025E-1,-2.438012600E0,-6.751249731E-2
2.401253720E1,-1.867250055E-1,-2.455062389E0,3.877500072E-2
2.403253720E1,-2.380124927E-1,-2.266962528E0,1.363999993E-1
2.405253720E1,-1.634874940E-1,-1.987149954E0,8.758749813E-2
2.407253720E1,-4.674999975E-3,-1.973812461E0,-1.388750039E-2
2.409253720E1,-9.143749624E-2,-2.044625044E0,-3.341250122E-2
2.411253720E1,-4.078249931E-1,-1.872337461E0,-4.564999789E-2
2.413253720E1,-6.069250107E-1,-1.604762435E0,5.211250111E-2
2.415253720E1,-4.835875034E-1,-1.453374982E0,1.181124970E-1
2.417253720E1,-2.417249978E-1,-1.410612464E0,1.193500012E-1
2.419253720E1,-3.643750027E-2,-1.411712527E0,8.030000329E-2
2.421253720E1,-1.196249947E-2,-1.494899988E0,3.506249934E-2
2.423253720E1,-1.024374962E-1,-1.485137463E0,-7.699999958E-3
2.425253720E1,-2.587749958E-1,-1.530237436E0,-1.746249944E-2
2.427253720E1,-3.638249934E-1,-1.697712541E0,2.529999986E-2
2.429253720E1,-3.614875078E-1,-1.794100046E0,4.963750020E-2
2.431253720E1,-2.099625021E-1,-1.757524967E0,2.777500078E-2
2.433253720E1,-2.337499987E-3,-1.797812462E0,6.077500060E-2
2.435253720E1,1.687124968E-1,-1.902862549E0,1.938749999E-1
2.437253720E1,2.274249941E-1,-1.884575009E0,2.758249938E-1
2.439253720E1,2.079000026E-1,-1.753812432E0,2.586374879E-1
2.441253720E1,1.541374922E-1,-1.552237511E0,1.988250017E-1
2.443253720E1,1.528999954E-1,-1.416662455E0,1.743499935E-1
2.445253720E1,1.944250017E-1,-1.480187535E0,1.095874980E-1
2.447253720E1,1.236125007E-1,-1.452137470E0,6.806249917E-2
2.449253720E1,2.213750035E-2,-1.347087502E0,4.248749837E-2
2.451253720E1,-7.796250284E-2,-1.195562482E0,6.929999590E-2
2.453253720E1,-5.967500061E-2,-1.091750026E0,8.524999768E-2
2.455253720E1,9.899999946E-3,-1.024512529E0,-1.993750036E-2
2.457253720E1,-5.596249923E-2,-9.634624720E-1,-1.652749926E-1
2.459253720E1,-2.905375063E-1,-9.120374918E-1,-2.776125073E-1
2.461253720E1,-4.592500031E-1,-6.494125128E-1,-2.800875008E-1
2.463253720E1,-4.518249929E-1,-3.843125105E-1,-1.029874980E-1
2.465253720E1,-4.188250005E-1,-2.413125038E-1,3.382499889E-2
2.467253720E1,-2.942500114E-1,1.251250058E-1,-1.347499937E-1
2.469253720E1,-2.001999915E-1,3.804624975E-1,-3.020874858E-1
2.471253720E1,-2.062499896E-2,4.769875109E-1,-5.011875033E-1
2.473253720E1,1.113749966E-1,4.892250001E-1,-1.555124968E-1
2.475253720E1,-1.099999994E-3,5.454624891E-1,2.777500078E-2
2.477253720E1,-2.074874938E-1,9.363750219E-1,-1.102750003E-1
2.479253720E1,-1.403875053E-1,9.351375103E-1,-8.937500417E-3
2.481253720E1,1.076624990E-1,8.349000216E-1,1.865874976E-1
2.483253720E1,2.860000134E-1,8.458999991E-1,2.941125035E-1
2.485253720E1,3.239499927E-1,9.729499817E-1,2.708750069E-1
2.487253720E1,1.809500009E-1,1.117187500E0,1.658249944E-1
2.489253720E1,-7.149999961E-3,1.306524992E0,1.365374923E-1
2.491253720E1,-1.561999917E-1,1.521574974E0,1.670625061E-1
2.493253720E1,-1.794375032E-1,1.682862520E0,2.501125038E-1
2.495253720E1,-1.647250056E-1,1.736624956E0,3.612124920E-1
2.497253720E1,-1.146750003E-1,1.771962523E0,4.614500105E-1
2.499253720E1,7.232499868E-2,1.818437457E0,4.956874847E-1
2.501253720E1,3.227125108E-1,1.796437502E0,3.819749951E-1
2.503253720E1,4.705249965E-1,1.786674976E0,3.356375098E-1
2.505253720E1,4.620000124E-1,1.806200027E0,3.966875076E-1
2.507253720E1,3.349500000E-1,1.858724952E0,4.614500105E-1
2.509253720E1,1.931875050E-1,2.000487566E0,4.113999903E-1
2.511253720E1,2.237125039E-1,2.132349968E0,3.294500113E-1
2.513253720E1,3.324750066E-1,2.219112396E0,2.964499891E-1
2.515253720E1,4.229499996E-1,2.226537466E0,2.818749845E-1
2.517253720E1,4.607625008E-1,2.239875078E0,2.646875083E-1
2.519253720E1,4.925250113E-1,2.330349922E0,2.476374954E-1
2.521253720E1,5.695250034E-1,2.431687593E0,2.561624944E-1
2.523253720E1,7.198125124E-1,2.469637394E0,2.879250050E-1
2.525253720E1,8.406749964E-1,2.396349907E0,2.989250124E-1
2.527253720E1,8.175749779E-1,2.268062592E0,2.439250052E-1
2.529253720E1,6.793875098E-1,2.232587576E0,1.401125044E-1
2.531253720E1,5.095750093E-1,2.241112471E0,1.801249944E-2
2.533253720E1,4.985750020E-1,2.276587486E0,-7.851249725E-2
2.535253720E1,4.765749872E-1,2.263112545E0,-1.995124966E-1
2.537253720E1,3.984749913E-1,2.242350101E0,-3.155624866E-1
2.539253720E1,2.909500003E-1,2.252112389E0,-3.508999944E-1
2.541253720E1,9.790000319E-2,2.340112448E0,-3.265624940E-1
2.543253720E1,2.089999989E-2,2.358399868E0,-2.861374915E-1
2.545253720E1,6.008749828E-2,2.387687445E0,-2.556124926E-1
2.547253720E1,1.284250021E-1,2.412162542E0,-2.532750070E-1
2.549253720E1,1.419000030E-1,2.470875025E0,-2.018499970E-1
2.551253720E1,1.259499937E-1,2.512399912E0,-7.246249914E-2
2.553253720E1,1.491875052E-1,2.458637476E0,8.277499676E-2
2.555253720E1,1.944250017E-1,2.487925053E0,1.535875052E-1
2.557253720E1,2.677125037E-1,2.548974991E0,1.926375031E-1
2.559253720E1,3.959999979E-1,2.677262545E0,2.793999910E-1
2.561253720E1,4.937624931E-1,2.786025047E0,3.734500110E-1
2.563253720E1,5.511000156E-1,2.968075037E0,4.993999898E-1
2.565253720E1,5.805249810E-1,3.024312496E0,5.739250183E-1
2.567253720E1,6.135249734E-1,3.007124901E0,6.557375193E-1
2.569253720E1,6.635749936E-1,3.042599916E0,7.425000072E-1
2.571253720E1,7.160999775E-1,3.086600065E0,8.353124857E-1
2.573253720E1,7.148625255E-1,3.095124960E0,9.123125076E-1
2.575253720E1,8.126249909E-1,3.054837465E0,1.001412511E0
2.577253720E1,9.384375215E-1,3.012074947E0,1.007599950E0
2.579253720E1,1.052012444E0,3.126887560E0,1.071125031E0
2.581253720E1,1.132725000E0,3.185462475E0,1.119937539E0
2.583253720E1,9.579625130E-1,3.281987429E0,1.102887511E0
2.585253720E1,6.903874874E-1,3.310174942E0,1.016124964E0
2.587253720E1,3.227125108E-1,3.424987555E0,8.975999951E-1
2.589253720E1,3.189999983E-2,3.600849867E0,9.025499821E-1
2.591253720E1,9.542500228E-2,3.659562588E0,1.087074995E0
2.593253720E1,3.459500074E-1,3.679087400E0,1.284937501E0
2.595253720E1,5.548124909E-1,3.767087460E0,1.378987551E0
2.597253720E1,6.256250143E-1,3.975950003E0,1.427937508E0
2.599253720E1,6.586250067E-1,4.078525066E0,1.573274970E0
2.601253720E1,8.761500120E-1,4.186049938E0,1.901899934E0
2.603253720E1,1.370875001E0,4.104237556E0,2.206049919E0
2.605253720E1,2.009837389E0,3.889187574E0,2.407624960E0
2.607253720E1,2.416699886E0,3.709612370E0,2.377099991E0
2.609253720E1,2.541275024E0,3.731612444E0,2.135237455E0
2.611253720E1,2.217599869E0,3.746325016E0,1.711325049E0
2.613253720E1,1.673925042E0,3.642374992E0,1.306937456E0
2.615253720E1,1.094774961E0,3.607037544E0,5.909749866E-1
2.617253720E1,6.965749860E-1,3.716899872E0,6.642624736E-1
2.619253720E1,5.400999784E-1,3.486037493E0,9.343125224E-1
2.621253720E1,8.174374700E-1,3.180649996E0,1.133412480E0
2.623253720E1,1.369637489E0,2.797024965E0,1.308174968E0
2.625253720E1,1.774024963E0,2.688262463E0,1.660037518E0
2.627253720E1,2.039124966E0,2.845837593E0,1.965425014E0
2.629253720E1,2.196837425E0,2.601500034E0,2.032662392E0
2.631253720E1,1.622637510E0,1.795199990E0,1.732087493E0
2.633253720E1,4.130499959E-1,6.418499947E-1,8.927875161E-1
2.635253720E1,-7.988749743E-1,-4.575999975E-1,-2.474999987E-2
2.637253720E1,-1.603937507E0,-1.477712512E0,-7.517125010E-1
2.639253720E1,-1.829987526E0,-1.971337438E0,-1.131624937E0
2.641253720E1,-1.646700025E0,-2.165625095E0,-1.356437445E0
2.643253720E1,-1.060262442E0,-2.356199980E0,-1.428487539E0
2.645253720E1,-6.400625110E-1,-2.693350077E0,-1.379675031E0
2.647253720E1,-7.866374850E-1,-2.892450094E0,-1.389437437E0
2.649253720E1,-1.013787508E0,-2.915687561E0,-1.580012441E0
2.651253720E1,-1.093262553E0,-2.808162451E0,-1.663062453E0
2.653253720E1,-9.039250016E-1,-2.794687510E0,-1.433437467E0
2.655253720E1,-7.243499756E-1,-2.881449938E0,-1.109624982E0
2.657253720E1,-6.375874877E-1,-3.278549910E0,-9.593374729E-1
2.659253720E1,-7.255874872E-1,-3.365312576E0,-9.740499854E-1
2.661253720E1,-8.452125192E-1,-3.267549992E0,-9.325249791E-1
2.663253720E1,-8.269249797E-1,-3.173500061E0,-8.762875199E-1
2.665253720E1,-9.271624684E-1,-2.995162487E0,-7.394750118E-1
2.667253720E1,-1.173837543E0,-3.004925013E0,-7.039999962E-1
2.669253720E1,-9.967374802E-1,-3.412887573E0,-8.432874680E-1
2.671253720E1,-8.904500008E-1,-3.695174932E0,-9.667624831E-1
2.673253720E1,-1.073737502E0,-3.436125040E0,-9.568625093E-1
2.675253720E1,-1.291124940E0,-2.968212366E0,-8.970500231E-1
2.677253720E1,-9.796875119E-1,-2.924212456E0,-7.980499864E-1
2.679253720E1,-5.581125021E-1,-3.412887573E0,-6.869499683E-1
2.681253720E1,-1.017500043E0,-3.444649935E0,-6.564249992E-1
2.683253720E1,-1.423125029E0,-3.139262438E0,-7.760499716E-1
2.685253720E1,-1.085975051E0,-2.905925035E0,-7.870500088E-1
2.687253720E1,-3.553000093E-1,-3.023212433E0,-5.366625190E-1
2.689253720E1,-4.347749949E-1,-3.412887573E0,-4.193750024E-1
2.691253720E1,-1.038262486E0,-3.111212492E0,-6.722375154E-1
2.693253720E1,-1.172737479E0,-2.631062508E0,-8.445249796E-1
2.695253720E1,-6.938250065E-1,-2.709300041E0,-6.869499683E-1
2.697253720E1,-3.260124922E-1,-3.111212492E0,-4.633750021E-1
2.699253720E1,-6.998749971E-1,-3.065974951E0,-5.183749795E-1
2.701253720E1,-9.332125187E-1,-2.792350054E0,-6.074749827E-1
2.703253720E1,-8.892124891E-1,-2.848449945E0,-5.622375011E-1
2.705253720E1,-7.914500237E-1,-3.102687597E0,-4.156624973E-1
2.707253720E1,-7.328749895E-1,-3.161262512E0,-3.484250009E-1
2.709253720E1,-7.609249949E-1,-3.006162405E0,-3.130874932E-1
2.711253720E1,-1.002925038E0,-2.849687576E0,-2.788499892E-1
2.713253720E1,-1.068787456E0,-2.804587603E0,-2.348500043E-1
2.715253720E1,-7.634000182E-1,-2.838687420E0,-2.520374954E-1
2.717253720E1,-4.494875073E-1,-2.805687428E0,-2.715624869E-1
2.719253720E1,-6.118749976E-1,-2.596824884E0,-3.155624866E-1
2.721253720E1,-1.088449955E0,-2.264487505E0,-3.460874856E-1
2.723253720E1,-1.061499953E0,-2.169199944E0,-3.838999867E-1
2.725253720E1,-7.914500237E-1,-2.219387531E0,-3.961375058E-1
2.727253720E1,-6.413000226E-1,-2.200962543E0,-3.411374986E-1
2.729253720E1,-6.485875249E-1,-2.050674915E0,-2.213750035E-1
2.731253720E1,-5.630624890E-1,-1.944387436E0,-1.872749925E-1
2.733253720E1,-4.384875000E-1,-1.949337482E0,-1.958000064E-1
2.735253720E1,-3.260124922E-1,-1.967625022E0,-2.080374956E-1
2.737253720E1,-4.250124991E-1,-1.890625000E0,-2.165624946E-1
2.739253720E1,-5.373499990E-1,-1.806337476E0,-1.432749927E-1
2.741253720E1,-3.712500036E-1,-1.714762449E0,-1.200374961E-1
2.743253720E1,-1.171500012E-1,-1.847862482E0,-2.140875012E-1
2.745253720E1,-9.762500226E-2,-1.788049936E0,-1.737999916E-1
2.747253720E1,-1.366750002E-1,-1.780762434E0,-1.029874980E-1
2.749253720E1,-1.599124968E-1,-1.846762538E0,1.306249946E-2
2.751253720E1,-5.362499878E-2,-1.942049980E0,1.645874977E-1
2.753253720E1,1.039500013E-1,-2.042150021E0,3.136374950E-1
2.755253720E1,9.542500228E-2,-2.072674990E0,2.831124961E-1
2.757253720E1,-1.097249985E-1,-1.910287499E0,1.805374920E-1
2.759253720E1,-2.612499893E-1,-1.714762449E0,1.500124931E-1
2.761253720E1,-2.527250051E-1,-1.574237466E0,2.000624985E-1
2.763253720E1,-9.638749808E-2,-1.582762480E0,1.743499935E-1
2.765253720E1,-1.061500013E-1,-1.602424979E0,9.748750180E-2
2.767253720E1,-2.600125074E-1,-1.614524961E0,2.529999986E-2
2.769253720E1,-4.274874926E-1,-1.653712511E0,-3.451250121E-2
2.771253720E1,-5.471125245E-1,-1.690287471E0,-8.332499862E-2
2.773253720E1,-6.424000263E-1,-1.764812469E0,-1.273249984E-1
2.775253720E1,-7.853999734E-1,-1.750237465E0,-1.603250057E-1
2.777253720E1,-8.036875129E-1,-1.671999931E0,-2.153249979E-1
2.779253720E1,-6.290624738E-1,-1.684237480E0,-2.458499968E-1
2.781253720E1,-3.772999942E-1,-1.741575003E0,-2.250874937E-1
2.783253720E1,-2.477750033E-1,-1.745287538E0,-2.238499969E-1
2.785253720E1,-3.064875007E-1,-1.640237451E0,-1.762750000E-1
2.787253720E1,-3.834874928E-1,-1.590187550E0,-1.737999916E-1
2.789253720E1,-4.323000014E-1,-1.552237511E0,-1.787499934E-1
2.791253720E1,-4.580124915E-1,-1.553475022E0,-2.690874934E-1
2.793253720E1,-5.410624743E-1,-1.510712504E0,-3.826625049E-1
2.795253720E1,-6.302999854E-1,-1.411712527E0,-4.438500106E-1
2.797253720E1,-5.678749681E-1,-1.406900048E0,-4.536125064E-1
2.799253720E1,-4.530625045E-1,-1.437425017E0,-4.438500106E-1
2.801253720E1,-4.542999864E-1,-1.404425025E0,-4.328500032E-1
2.803253720E1,-5.667750239E-1,-1.241899967E0,-4.804250002E-1
2.805253720E1,-7.376874685E-1,-1.073325038E0,-6.062374711E-1
2.807253720E1,-7.804499865E-1,-9.719874859E-1,-6.759499907E-1
2.809253720E1,-6.534000039E-1,-9.670374990E-1,-6.404749751E-1
2.811253720E1,-4.567750096E-1,-1.086799979E0,-5.842375159E-1
2.813253720E1,-2.637250125E-1,-1.188137531E0,-4.756124914E-1
2.815253720E1,-1.831499934E-1,-1.298137546E0,-3.496625125E-1
2.817253720E1,-2.820124924E-1,-1.502187490E0,-3.398999870E-1
2.819253720E1,-1.854874939E-1,-1.807574987E0,-4.179999977E-2
2.821253720E1,2.811875045E-1,-1.582762480E0,4.724499881E-1
2.823253720E1,7.943375111E-1,-1.190612435E0,4.138749838E-1
2.825253720E1,8.419125080E-1,-6.751250029E-1,1.683000028E-1
2.827253720E1,4.644750059E-1,-2.694999874E-1,4.834499955E-1
2.829253720E1,1.088999957E-1,1.715999991E-1,5.139750242E-1
2.831253720E1,-9.624999948E-3,7.506124973E-1,5.164499879E-1
2.833253720E1,1.601874977E-1,1.191712499E0,5.604500175E-1
2.835253720E1,3.617624938E-1,1.455574989E0,5.702124834E-1
2.837253720E1,3.959999979E-1,1.488574982E0,5.616874695E-1
2.839253720E1,3.495250046E-1,1.615625024E0,5.629249811E-1
2.841253720E1,4.192374945E-1,1.731675029E0,5.959249735E-1
2.843253720E1,6.573874950E-1,1.818437457E0,6.752625108E-1
2.845253720E1,9.151999950E-1,1.696200013E0,7.547374964E-1
2.847253720E1,8.248624802E-1,1.725625038E0,8.402624726E-1
2.849253720E1,6.268625259E-1,1.877012491E0,9.085999727E-1
2.851253720E1,6.880499721E-1,1.857487440E0,8.878374696E-1
2.853253720E1,7.416750193E-1,1.847725034E0,7.657374740E-1
2.855253720E1,7.331500053E-1,1.877012491E0,6.777374744E-1
2.857253720E1,6.903874874E-1,1.966249943E0,6.727874875E-1
2.859253720E1,6.550499797E-1,2.210587502E0,5.909749866E-1
2.861253720E1,6.000499725E-1,2.409687519E0,4.736874998E-1
2.863253720E1,4.900499880E-1,2.610024929E0,3.771624863E-1
2.865253720E1,4.217124879E-1,2.682212591E0,3.478749990E-1
2.867253720E1,4.240500033E-1,2.685787439E0,3.491125107E-1
2.869253720E1,5.450500250E-1,2.671212435E0,3.014000058E-1
2.871253720E1,7.038624883E-1,2.657737494E0,1.255374998E-1
2.873253720E1,8.211500049E-1,2.624737501E0,-2.598750032E-2
2.875253720E1,8.186749816E-1,2.607687473E0,-6.627500057E-2
2.877253720E1,6.891499758E-1,2.635737419E0,-3.451250121E-2
2.879253720E1,6.366249919E-1,2.755500078E0,-8.951249719E-2
2.881253720E1,6.158624887E-1,2.870312452E0,-2.836624980E-1
2.883253720E1,4.937624931E-1,2.843499899E0,-3.691875041E-1
2.885253720E1,3.715249896E-1,2.786025047E0,-3.228499889E-1
2.887253720E1,3.849999905E-1,2.764024973E0,-2.971374989E-1
2.889253720E1,4.729999900E-1,2.963124990E0,-3.350875080E-1
2.891253720E1,4.435749948E-1,3.323512554E0,-3.581874967E-1
2.893253720E1,3.227125108E-1,3.555749893E0,-3.753750026E-1
2.895253720E1,2.542375028E-1,3.697375059E0,-4.241875112E-1
2.897253720E1,2.737624943E-1,3.747562408E0,-3.851374984E-1
2.899253720E1,3.349500000E-1,3.773137569E0,-2.311374992E-1
2.901253720E1,4.399999976E-1,3.769424915E0,3.519999981E-2
2.903253720E1,6.195750237E-1,3.686374903E0,2.538250089E-1
2.905253720E1,8.589624763E-1,3.500750065E0,4.761624932E-1
2.907253720E1,1.001962543E0,3.290512562E0,6.289250255E-1
2.909253720E1,1.049537539E0,3.212412596E0,7.852625251E-1
2.911253720E1,1.173012495E0,3.172125101E0,9.453125000E-1
2.913253720E1,1.146062493E0,3.148887396E0,9.612625241E-1
2.915253720E1,9.286749959E-1,3.310174942E0,8.659750223E-1
2.917253720E1,8.223875165E-1,3.503225088E0,8.219749928E-1
2.919253720E1,7.954375148E-1,3.607037544E0,8.915500045E-1
2.921253720E1,6.133875251E-1,3.815900087E0,8.634999990E-1
2.923253720E1,6.110500097E-1,4.044425011E0,1.019837499E0
2.925253720E1,8.846749663E-1,3.981999874E0,1.173837543E0
2.927253720E1,1.043487549E0,3.851374865E0,1.264174938E0
2.929253720E1,1.067962527E0,3.703562498E0,1.343649983E0
2.931253720E1,1.064249992E0,3.625324965E0,1.391224980E0
2.933253720E1,8.981499672E-1,3.840374947E0,1.455987453E0
2.935253720E1,8.676249981E-1,4.028474808E0,1.465749979E0
2.937253720E1,1.036200047E0,4.030950069E0,1.562274933E0
2.939253720E1,1.291537523E0,3.815900087E0,1.644087434E0
2.941253720E1,1.328112483E0,3.665612459E0,1.644087434E0
2.943253720E1,1.278062463E0,3.740137577E0,1.651512504E0
2.945253720E1,1.427112460E0,3.901424885E0,1.686849952E0
2.947253720E1,1.719162464E0,3.936899900E0,1.790799975E0
2.949253720E1,1.954837441E0,3.786612511E0,1.823662519E0
2.951253720E1,1.998837471E0,3.574037552E0,1.696612477E0
2.953253720E1,1.950024962E0,3.427462578E0,1.437700033E0
2.955253720E1,1.609162450E0,3.256412506E0,1.041837454E0
2.957253720E1,1.333062530E0,3.209937572E0,9.600250125E-1
2.959253720E1,1.235299945E0,2.954600096E0,9.550749660E-1
2.961253720E1,1.116775036E0,2.680974960E0,9.758374691E-1
2.963253720E1,8.711999655E-1,2.474449873E0,9.380249977E-1
2.965253720E1,5.633375049E-1,2.264349937E0,1.021075010E0
2.967253720E1,8.676249981E-1,2.253350019E0,1.057649970E0
2.969253720E1,1.432062507E0,2.257062435E0,1.243412495E0
2.971253720E1,1.705687523E0,1.873437524E0,1.348462462E0
2.973253720E1,1.280537486E0,1.076900005E0,1.205600023E0
2.975253720E1,2.457125038E-1,5.183750018E-2,6.472125053E-1
2.977253720E1,-2.991999984E-1,-6.604124904E-1,5.101250112E-2
2.979253720E1,-8.281624913E-1,-1.326324940E0,-5.489000082E-1
2.981253720E1,-1.247262478E0,-1.607237458E0,-9.728124738E-1
2.983253720E1,-1.311887503E0,-1.777050018E0,-1.153625011E0
2.985253720E1,-9.514999986E-1,-2.078862429E0,-1.171912551E0
2.987253720E1,-7.279250026E-1,-2.686062574E0,-1.137675047E0
2.989253720E1,-9.747374654E-1,-2.830162525E0,-1.185387492E0
2.991253720E1,-1.230075002E0,-2.721400023E0,-1.207387447E0
2.993253720E1,-1.208075047E0,-2.632299900E0,-1.143862486E0
2.995253720E1,-9.967374802E-1,-2.719062567E0,-9.850500226E-1
2.997253720E1,-8.476874828E-1,-2.958450079E0,-7.992874980E-1
2.999253720E1,-9.820249677E-1,-3.051262379E0,-8.262374997E-1
3.001253720E1,-1.248362541E0,-2.911974907E0,-8.909999728E-1
3.003253720E1,-1.355887532E0,-2.621299982E0,-9.092875123E-1
3.005253720E1,-1.216599941E0,-2.555299997E0,-7.699999809E-1
3.007253720E1,-9.063999653E-1,-2.842400074E0,-6.369000077E-1
3.009253720E1,-1.027262449E0,-2.890112400E0,-6.221874952E-1
3.011253720E1,-1.274075031E0,-2.737349987E0,-6.796625257E-1
3.013253720E1,-1.333887458E0,-2.533299923E0,-6.514750123E-1
3.015253720E1,-1.072499990E0,-2.488062382E0,-5.061374903E-1
3.017253720E1,-7.671124935E-1,-2.820400000E0,-4.181374907E-1
3.019253720E1,-1.362074971E0,-2.813112497E0,-5.733749866E-1
3.021253720E1,-1.640650034E0,-2.511300087E0,-7.064750195E-1
3.023253720E1,-1.244787455E0,-2.433062553E0,-6.624749899E-1
3.025253720E1,-8.439750075E-1,-2.567537546E0,-5.146625042E-1
3.027253720E1,-8.501625061E-1,-2.545537472E0,-3.668499887E-1
3.029253720E1,-9.259250164E-1,-2.666537523E0,-4.560874999E-1
3.031253720E1,-9.722625017E-1,-2.672587395E0,-5.268999934E-1
3.033253720E1,-9.735000134E-1,-2.461250067E0,-4.951374829E-1
3.035253720E1,-9.051625133E-1,-2.347675085E0,-4.096125066E-1
3.037253720E1,-6.546375155E-1,-2.446537495E0,-2.470874935E-1
3.039253720E1,-5.533000231E-1,-2.727587461E0,-2.300374955E-1
3.041253720E1,-6.058250070E-1,-2.802112579E0,-3.056625128E-1
3.043253720E1,-7.341125011E-1,-2.701874971E0,-3.753750026E-1
3.045253720E1,-7.866374850E-1,-2.548012495E0,-4.083749950E-1
3.047253720E1,-7.279250026E-1,-2.551587582E0,-4.669499993E-1
3.049253720E1,-8.611624837E-1,-2.653062582E0,-6.674249768E-1
3.051253720E1,-9.332125187E-1,-2.766637564E0,-7.638124824E-1
3.053253720E1,-7.181624770E-1,-2.771587372E0,-7.332875133E-1
3.055253720E1,-5.863000154E-1,-2.766637564E0,-6.979500055E-1
3.057253720E1,-7.475875020E-1,-2.617587566E0,-7.662875056E-1
3.059253720E1,-7.353500128E-1,-2.611537457E0,-8.347625136E-1
3.061253720E1,-4.530625045E-1,-2.683587551E0,-7.980499864E-1
3.063253720E1,-4.933499992E-1,-2.681112528E0,-7.455250025E-1
3.065253720E1,-7.108749747E-1,-2.574825048E0,-6.782875061E-1
3.067253720E1,-7.658749819E-1,-2.449012518E0,-6.539499760E-1
3.069253720E1,-6.424000263E-1,-2.331724882E0,-6.246625185E-1
3.071253720E1,-6.851624846E-1,-2.313437462E0,-5.684249997E-1
3.073253720E1,-6.913499832E-1,-2.219387531E0,-4.536125064E-1
3.075253720E1,-5.923500061E-1,-2.247437477E0,-3.228499889E-1
3.077253720E1,-5.190625191E-1,-2.216912508E0,-2.666125000E-1
3.079253720E1,-6.131125093E-1,-2.131387472E0,-2.751374841E-1
3.081253720E1,-7.096375227E-1,-1.996912479E0,-2.653749883E-1
3.083253720E1,-5.398250222E-1,-2.040912390E0,-1.615625024E-1
3.085253720E1,-1.659625024E-1,-2.166862488E0,3.024999984E-2
3.087253720E1,-1.086250022E-1,-2.240149975E0,1.755875051E-1
3.089253720E1,-2.149125040E-1,-2.131387472E0,2.807750106E-1
3.091253720E1,-1.451999992E-1,-2.066624880E0,1.988250017E-1
3.093253720E1,-3.542000055E-1,-2.213200092E0,1.194875017E-1
3.095253720E1,-2.282499969E-1,-2.176625013E0,2.965874970E-1
3.097253720E1,4.895000160E-2,-2.345200062E0,4.053499997E-1
3.099253720E1,1.443749964E-1,-2.373250008E0,3.222999871E-1
3.101253720E1,-2.039124966E-1,-2.182674885E0,-3.932499886E-2
3.103253720E1,-8.709250093E-1,-1.953050017E0,-4.901874959E-1
3.105253720E1,-1.184975028E0,-1.857762456E0,-6.294749975E-1
3.107253720E1,-1.100549936E0,-1.852812529E0,-5.696625113E-1
3.109253720E1,-8.244500160E-1,-1.902862549E0,-4.413749874E-1
3.111253720E1,-5.948249698E-1,-1.948099971E0,-3.778499961E-1
3.113253720E1,-5.142499804E-1,-1.879762530E0,-4.009499848E-1
3.115253720E1,-5.801125169E-1,-1.752575040E0,-4.217124879E-1
3.117253720E1,-6.888750196E-1,-1.642712474E0,-3.753750026E-1
3.119253720E1,-6.571124792E-1,-1.581662536E0,-2.739000022E-1
3.121253720E1,-4.445374906E-1,-1.588950038E0,-1.750375032E-1
3.123253720E1,-1.659625024E-1,-1.587712526E0,-1.017500013E-1
3.125253720E1,3.437500075E-2,-1.549899936E0,8.249999955E-3
3.127253720E1,1.064250022E-1,-1.569424987E0,9.253749996E-2
3.129253720E1,1.211374998E-1,-1.553475022E0,1.328250021E-1
3.131253720E1,1.271875054E-1,-1.623187542E0,1.865874976E-1
3.133253720E1,1.431374997E-1,-1.768525004E0,2.415875047E-1
3.135253720E1,1.406625062E-1,-1.921287537E0,3.075875044E-1
3.137253720E1,7.466249913E-2,-1.970100045E0,3.295874894E-1
3.139253720E1,-7.149999961E-3,-1.948099971E0,3.161124885E-1
3.141253720E1,5.087499972E-3,-1.957862496E0,3.161124885E-1
3.143253720E1,2.818750031E-2,-1.948099971E0,3.441624939E-1
3.145253720E1,3.437500075E-2,-1.962812543E0,2.941125035E-1
3.147253720E1,2.213750035E-2,-2.036099911E0,2.403499931E-1
3.149253720E1,-1.814999990E-2,-2.077625036E0,2.648249865E-1
3.151253720E1,-8.043749630E-2,-2.017812490E0,2.843500078E-1
3.153253720E1,-1.036750004E-1,-2.051912546E0,2.745875120E-1
3.155253720E1,-1.049124971E-1,-2.153387547E0,2.147749960E-1
3.157253720E1,-2.429624945E-1,-2.227912426E0,1.315875053E-1
3.159253720E1,-4.873000085E-1,-2.219387531E0,1.196249947E-2
3.161253720E1,-6.851624846E-1,-2.444062471E0,-1.578499973E-1
3.163253720E1,-7.145875096E-1,-2.686062574E0,2.525874972E-1
3.165253720E1,-3.286249936E-2,-1.675712466E0,1.677500084E-2
3.167253720E1,8.419125080E-1,-9.109374881E-1,-1.187999994E-1
3.169253720E1,1.056962490E0,-1.997874975E-1,8.882500231E-2
3.171253720E1,7.649124861E-1,2.033624947E-1,1.475374997E-1
3.173253720E1,2.714250088E-1,4.085125029E-1,1.683000028E-1
3.175253720E1,-5.115000159E-2,5.747500062E-1,1.438249946E-1
3.177253720E1,4.042499885E-2,8.703749776E-1,8.153750002E-2
3.179253720E1,2.982375026E-1,1.057237506E0,4.729999974E-2
3.181253720E1,4.632374942E-1,1.162425041E0,1.429999992E-2
3.183253720E1,4.973374903E-1,1.373762488E0,-7.122500241E-2
3.185253720E1,5.120499730E-1,1.658387542E0,-7.603749633E-2
3.187253720E1,5.768125057E-1,1.828199983E0,5.472499877E-2
3.189253720E1,5.805249810E-1,1.787912488E0,2.635875046E-1
3.191253720E1,4.717625082E-1,1.929537535E0,3.955875039E-1
3.193253720E1,2.811875045E-1,2.072537422E0,3.955875039E-1
3.195253720E1,1.589500010E-1,2.269299984E0,4.003999829E-1
3.197253720E1,2.164250016E-1,2.341350079E0,4.786374867E-1
3.199253720E1,3.812874854E-1,2.183774948E0,5.946875215E-1
3.201253720E1,5.205749869E-1,2.048062563E0,4.896374941E-1
3.203253720E1,6.378625035E-1,2.055487394E0,2.708750069E-1
3.205253720E1,7.783874869E-1,2.149537563E0,1.512500048E-1
3.207253720E1,8.333874941E-1,2.198349953E0,1.365374923E-1
3.209253720E1,7.503374815E-1,2.061537504E0,1.267749965E-1
3.211253720E1,5.915250182E-1,1.971199989E0,4.124999791E-2
3.213253720E1,4.472874999E-1,1.982062459E0,-1.395625025E-1
3.215253720E1,3.764750063E-1,2.037062407E0,-2.556124926E-1
3.217253720E1,4.448125064E-1,2.138537407E0,-2.202749997E-1
3.219253720E1,5.670499802E-1,2.235062599E0,-2.116124928E-1
3.221253720E1,6.683874726E-1,2.225300074E0,-2.580874860E-1
3.223253720E1,7.063375115E-1,2.226537466E0,-2.873750031E-1
3.225253720E1,7.198125124E-1,2.216637373E0,-2.703250051E-1
3.227253720E1,7.380999923E-1,2.204537392E0,-2.213750035E-1
3.229253720E1,7.258625031E-1,2.116537571E0,-1.847999990E-1
3.231253720E1,6.463875175E-1,2.125062466E0,-2.421374917E-1
3.233253720E1,5.865749717E-1,2.186112404E0,-3.228499889E-1
3.235253720E1,5.267624855E-1,2.203299999E0,-3.973749876E-1
3.237253720E1,5.132874846E-1,2.285112381E0,-4.779500067E-1
3.239253720E1,4.362874925E-1,2.390162468E0,-4.828999937E-1
3.241253720E1,3.324750066E-1,2.474449873E0,-3.508999944E-1
3.243253720E1,3.409999907E-1,2.539212465E0,-3.253250122E-1
3.245253720E1,3.544749916E-1,2.622262478E0,-3.240875006E-1
3.247253720E1,3.397625089E-1,2.699262381E0,-2.605625093E-1
3.249253720E1,2.407625020E-1,2.850787401E0,-2.300374955E-1
3.251253720E1,1.674750000E-1,3.035312414E0,-1.823250055E-1
3.253253720E1,2.847625017E-1,3.062124968E0,-1.163249984E-1
3.255253720E1,4.448125064E-1,2.972887516E0,-2.722499892E-2
3.257253720E1,5.938624740E-1,2.792074919E0,4.372499883E-2
3.259253720E1,7.453874946E-1,2.693212509E0,6.077500060E-2
3.261253720E1,6.793875098E-1,2.810499907E0,5.596249923E-2
3.263253720E1,6.110500097E-1,2.990074873E0,1.924999990E-2
3.265253720E1,6.818624735E-1,3.162362576E0,5.774999969E-3
3.267253720E1,7.416750193E-1,3.279649973E0,9.006249905E-2
3.269253720E1,6.916249990E-1,3.466512442E0,2.208250016E-1
3.271253720E1,4.790500104E-1,3.718137503E0,2.831124961E-1
3.273253720E1,-9.143749624E-2,4.165287495E0,3.271124959E-1
3.275253720E1,-1.416250020E-1,4.473149776E0,5.579749942E-1
3.277253720E1,3.104749918E-1,4.679675102E0,9.648374915E-1
3.279253720E1,8.321499825E-1,4.756674767E0,1.338699937E0
3.281253720E1,1.094774961E0,4.910537243E0,1.630749941E0
3.283253720E1,1.105774999E0,5.056012630E0,1.849375010E0
3.285253720E1,1.162012458E0,4.843437672E0,1.970374942E0
3.287253720E1,1.319587469E0,4.650387287E0,2.110762596E0
3.289253720E1,1.576162457E0,4.539149761E0,2.323474884E0
3.291253720E1,1.885262489E0,4.530624866E0,2.564100027E0
3.293253720E1,2.309175014E0,4.347337246E0,2.643437386E0
3.295253720E1,2.497274876E0,3.990662575E0,2.430862427E0
3.297253720E1,2.370224953E0,3.506799936E0,1.890900016E0
3.299253720E1,1.958549976E0,3.669324875E0,1.658800006E0
3.301253720E1,1.609162450E0,3.905137539E0,1.537799954E0
3.303253720E1,1.739925027E0,3.716899872E0,1.501224995E0
3.305253720E1,2.144312382E0,3.101175070E0,1.403462529E0
3.307253720E1,2.036787510E0,2.561212540E0,1.134649992E0
3.309253720E1,1.410062551E0,2.474449873E0,5.996375084E-1
3.311253720E1,5.193374753E-1,2.948549986E0,4.736874998E-1
3.313253720E1,7.218749821E-2,3.246649981E0,6.215000153E-1
3.315253720E1,8.236249685E-1,2.855599880E0,1.066312551E0
3.317253720E1,1.772787452E0,2.276587486E0,1.451037526E0
3.319253720E1,2.295700073E0,1.935724974E0,1.668562531E0
3.321253720E1,2.171124935E0,2.005300045E0,1.691799998E0
3.323253720E1,1.643399954E0,2.231349945E0,1.486512542E0
3.325253720E1,7.661499977E-1,1.902724981E0,1.047887444E0
3.327253720E1,1.736624986E-1,8.838499784E-1,5.274500251E-1
3.329253720E1,-2.954874933E-1,-2.622124851E-1,-7.232499868E-2
3.331253720E1,-7.231125236E-1,-1.012274981E0,-6.307125092E-1
3.333253720E1,-1.062737465E0,-1.329900026E0,-1.005674958E0
3.335253720E1,-1.208075047E0,-1.366612434E0,-1.169437528E0
3.337253720E1,-8.551124930E-1,-1.566949964E0,-1.132725000E0
3.339253720E1,-5.055875182E-1,-1.912624955E0,-1.083912492E0
3.341253720E1,-4.384875000E-1,-2.139912605E0,-1.009387493E0
3.343253720E1,-5.178250074E-1,-2.270674944E0,-9.678624868E-1
3.345253720E1,-5.410624743E-1,-2.290199995E0,-9.433875084E-1
3.347253720E1,-6.205375195E-1,-2.284149885E0,-9.140999913E-1
3.349253720E1,-7.158250213E-1,-2.330487490E0,-8.615750074E-1
3.351253720E1,-7.023500204E-1,-2.479537487E0,-7.699999809E-1
3.353253720E1,-6.338750124E-1,-2.720299959E0,-7.272375226E-1
3.355253720E1,-7.805874944E-1,-2.831399918E0,-6.807624698E-1
3.357253720E1,-1.076212525E0,-2.715349913E0,-7.088124752E-1
3.359253720E1,-1.131212473E0,-2.827687502E0,-8.200500011E-1
3.361253720E1,-1.155550003E0,-2.874162436E0,-8.225250244E-1
3.363253720E1,-1.131212473E0,-2.870450020E0,-8.005250096E-1
3.365253720E1,-1.110450029E0,-2.788637400E0,-6.624749899E-1
3.367253720E1,-1.096974969E0,-2.813112497E0,-6.330500245E-1
3.369253720E1,-1.085975051E0,-2.871687412E0,-6.734749675E-1
3.371253720E1,-1.133550048E0,-2.810637474E0,-6.502375007E-1
3.373253720E1,-1.049262524E0,-2.899874926E0,-5.891875029E-1
3.375253720E1,-8.171625137E-1,-2.973162413E0,-5.146625042E-1
3.377253720E1,-8.746374846E-1,-2.922975063E0,-5.244249701E-1
3.379253720E1,-1.085975051E0,-2.808162451E0,-6.342874765E-1
3.381253720E1,-9.307374954E-1,-2.700637579E0,-6.025249958E-1
3.383253720E1,-5.948249698E-1,-2.660350084E0,-4.474250078E-1
3.385253720E1,-5.275874734E-1,-2.593112469E0,-2.751374841E-1
3.387253720E1,-7.964000106E-1,-2.447774887E0,-2.483250052E-1
3.389253720E1,-6.828249693E-1,-2.357437372E0,-3.264249861E-1
3.391253720E1,-3.199625015E-1,-2.403774977E0,-2.886124849E-1
3.393253720E1,-1.379124969E-1,-2.577300072E0,-1.518000066E-1
3.395253720E1,-4.335374832E-1,-2.719062567E0,-1.102750003E-1
3.397253720E1,-6.730625033E-1,-2.550349951E0,-1.187999994E-1
3.399253720E1,-2.722499967E-1,-2.599299908E0,-4.303750023E-2
3.401253720E1,-4.386249930E-2,-2.846112490E0,-2.956249937E-2
3.403253720E1,-3.847250044E-1,-2.922975063E0,-1.236125007E-1
3.405253720E1,-9.894499779E-1,-2.610300064E0,-1.968999952E-1
3.407253720E1,-1.083500028E0,-2.395250082E0,-2.323749959E-1
3.409253720E1,-6.828249693E-1,-2.681112528E0,-2.336124927E-1
3.411253720E1,-8.111125231E-1,-2.868112564E0,-2.813250124E-1
3.413253720E1,-1.156787515E0,-2.574825048E0,-3.240875006E-1
3.415253720E1,-8.856375217E-1,-2.434299946E0,-2.531374991E-1
3.417253720E1,-3.772999942E-1,-2.720299959E0,-1.236125007E-1
3.419253720E1,-4.115374982E-1,-2.921875000E0,-6.627500057E-2
3.421253720E1,-8.036875129E-1,-2.815587521E0,-8.703749627E-2
3.423253720E1,-6.058250070E-1,-2.726350069E0,-8.332499862E-2
3.425253720E1,-1.219625026E-1,-2.814349890E0,-7.562499959E-3
3.427253720E1,-4.592500031E-1,-2.708062410E0,-8.799999952E-3
3.429253720E1,-9.784500003E-1,-2.566299915E0,-1.498750038E-2
3.431253720E1,-1.116500020E0,-2.582112551E0,-3.203750029E-2
3.433253720E1,-1.059025049E0,-2.456300020E0,-7.603749633E-2
3.435253720E1,-9.735000134E-1,-2.133862495E0,-7.851249725E-2
3.437253720E1,-8.441125154E-1,-2.117912531E0,2.543750033E-2
3.439253720E1,-6.448749900E-1,-2.276725054E0,7.919999957E-2
3.441253720E1,-6.803500056E-1,-2.353724957E0,4.496249929E-2
3.443253720E1,-8.331124783E-1,-2.209625006E0,-6.503749639E-2
3.445253720E1,-1.008975029E0,-2.031150103E0,-1.835625023E-1
3.447253720E1,-1.079787493E0,-1.904099941E0,1.567500085E-2
3.449253720E1,-8.256874681E-1,-1.917575002E0,3.895374835E-1
3.451253720E1,-4.030124843E-1,-2.111862421E0,4.408249855E-1
3.453253720E1,-2.331999987E-1,-2.069099903E0,2.195875049E-1
3.455253720E1,-3.712500036E-1,-2.034862518E0,-3.987499978E-3
3.457253720E1,-3.957250118E-1,-2.145962477E0,-1.251249947E-2
3.459253720E1,-3.797749877E-1,-2.254724979E0,1.352999955E-1
3.461253720E1,-4.617249966E-1,-2.255962372E0,3.075875044E-1
3.463253720E1,-4.225375056E-1,-2.136199951E0,3.418250084E-1
3.465253720E1,-3.577750027E-1,-1.992100000E0,2.477750033E-1
3.467253720E1,-3.212000132E-1,-1.858862519E0,1.585374922E-1
3.469253720E1,-2.844874859E-1,-1.745287538E0,1.537249982E-1
3.471253720E1,-2.099625021E-1,-1.769762516E0,2.232999951E-1
3.473253720E1,-2.222000062E-1,-1.801524997E0,2.917749882E-1
3.475253720E1,-3.187249899E-1,-1.690287471E0,3.198249936E-1
3.477253720E1,-3.920125067E-1,-1.525424957E0,2.172500044E-1
3.479253720E1,-4.958249927E-1,-1.390949965E0,1.023000032E-1
3.481253720E1,-5.080624819E-1,-1.420374990E0,1.072499976E-1
3.483253720E1,-3.993000090E-1,-1.485137463E0,1.903000027E-1
3.485253720E1,-1.696749926E-1,-1.607237458E0,2.941125035E-1
3.487253720E1,-7.067500055E-2,-1.618237495E0,3.246375024E-1
3.489253720E1,-7.315000147E-2,-1.532712460E0,3.038749993E-1
3.491253720E1,-1.134374961E-1,-1.383662462E0,2.391124964E-1
3.493253720E1,-1.219625026E-1,-1.265137434E0,2.355374992E-1
3.495253720E1,-1.451999992E-1,-1.180850029E0,2.270125002E-1
3.497253720E1,-1.769624949E-1,-1.184562445E0,1.450625062E-1
3.499253720E1,-2.222000062E-1,-1.224849939E0,4.977500066E-2
3.501253720E1,-2.857249975E-1,-1.304324985E0,9.872499853E-2
3.503253720E1,-2.564375103E-1,-1.395900011E0,1.780624986E-1
3.505253720E1,-1.196250021E-1,-1.355612516E0,1.780624986E-1
3.507253720E1,-2.186249942E-2,-1.252900004E0,1.768250018E-1
3.509253720E1,5.142499879E-2,-1.146612525E0,9.748750180E-2
3.511253720E1,3.684999794E-2,-1.101512551E0,6.696250290E-2
3.513253720E1,8.662499487E-3,-1.033037543E0,1.243000031E-1
3.515253720E1,1.237499993E-2,-9.695125222E-1,2.305874974E-1
3.517253720E1,-1.099999994E-3,-8.815125227E-1,2.440624982E-1
3.519253720E1,-1.024374962E-1,-8.949875236E-1,1.340624988E-1
3.521253720E1,-1.696749926E-1,-8.339374661E-1,1.194875017E-1
3.523253720E1,-3.004375100E-1,-8.766999841E-1,1.732500046E-1
3.525253720E1,-4.738250077E-1,-8.729875088E-1,3.222999871E-1
3.527253720E1,-2.063875049E-1,-3.170749843E-1,1.560624987E-1
3.529253720E1,1.614249945E-1,-2.547875047E-1,-1.003750041E-2
3.531253720E1,5.181000233E-1,-2.242625058E-1,-6.324999966E-3
3.533253720E1,5.926250219E-1,-1.570249945E-1,3.519999981E-2
3.535253720E1,1.736624986E-1,1.311749965E-1,7.548750192E-2
3.537253720E1,-3.847250044E-1,8.018999696E-1,-1.053249985E-1
3.539253720E1,-2.844874859E-1,1.108662486E0,-1.627999991E-1
3.541253720E1,5.266249925E-2,1.334574938E0,-1.456124932E-1
3.543253720E1,3.202374876E-1,1.269812465E0,1.132999957E-1
3.545253720E1,4.289999902E-1,1.405524969E0,1.572999954E-1
3.547253720E1,4.961000085E-1,1.619337440E0,-2.749999985E-3
3.549253720E1,5.572875142E-1,1.819674969E0,-8.951249719E-2
3.551253720E1,5.805249810E-1,1.912487507E0,-1.622499898E-2
3.553253720E1,5.511000156E-1,1.923487544E0,8.524999768E-2
3.555253720E1,4.192374945E-1,2.018774986E0,9.501250088E-2
3.557253720E1,2.957625091E-1,2.247299910E0,4.001250118E-2
3.559253720E1,3.372874856E-1,2.504975080E0,-7.603749633E-2
3.561253720E1,4.632374942E-1,2.657737494E0,-1.005124971E-1
3.563253720E1,6.133875251E-1,2.704212427E0,-4.551250115E-2
3.565253720E1,7.453874946E-1,2.634500027E0,5.774999969E-3
3.567253720E1,8.149625063E-1,2.548974991E0,-3.575000167E-2
3.569253720E1,7.881500125E-1,2.655262470E0,-2.079000026E-1
3.571253720E1,7.563874722E-1,2.788500071E0,-2.568500042E-1
3.573253720E1,7.331500053E-1,2.770075083E0,-1.346125007E-1
3.575253720E1,6.941000223E-1,2.666262388E0,-6.379999965E-2
3.577253720E1,6.550499797E-1,2.645499945E0,-1.493249983E-1
3.579253720E1,7.001500130E-1,2.734737396E0,-2.910875082E-1
3.581253720E1,7.759125233E-1,2.821500063E0,-3.899500072E-1
3.583253720E1,7.563874722E-1,2.867837429E0,-3.631374836E-1
3.585253720E1,7.501999736E-1,2.795787573E0,-3.179000020E-1
3.587253720E1,8.089125156E-1,2.722500086E0,-3.081375062E-1
3.589253720E1,8.199124932E-1,2.810499907E0,-4.144249856E-1
3.591253720E1,7.026249766E-1,3.082887411E0,-5.671874881E-1
3.593253720E1,7.356249690E-1,3.202650070E0,-5.464249849E-1
3.595253720E1,8.541499972E-1,3.224649906E0,-4.609000087E-1
3.597253720E1,9.970124960E-1,3.267412424E0,-4.156624973E-1
3.599253720E1,9.396749735E-1,3.351700068E0,-3.643749952E-1
3.601253720E1,6.280999780E-1,3.472562551E0,-3.814249933E-1
3.603253720E1,5.828624964E-1,3.344274998E0,-3.581874967E-1
3.605253720E1,6.941000223E-1,3.115887403E0,-2.568500042E-1
3.607253720E1,7.380999923E-1,2.920362473E0,-1.310375035E-1
3.609253720E1,7.686250210E-1,2.867837429E0,-1.251249947E-2
3.611253720E1,8.051999807E-1,2.976599932E0,9.487500414E-3
3.613253720E1,6.965749860E-1,3.170887470E0,-3.575000167E-2
3.615253720E1,6.378625035E-1,3.310174942E0,-2.956249937E-2
3.617253720E1,6.549124718E-1,3.343174934E0,-2.749999985E-4
3.619253720E1,7.368624806E-1,3.390749931E0,9.143749624E-2
3.621253720E1,7.343875170E-1,3.440799952E0,1.988250017E-1
3.623253720E1,9.004874825E-1,3.501987457E0,3.968249857E-1
3.625253720E1,1.064249992E0,3.475037575E0,4.566375017E-1
3.627253720E1,1.099725008E0,3.647325039E0,4.774000049E-1
3.629253720E1,8.784874678E-1,3.861137390E0,4.883999825E-1
3.631253720E1,5.620999932E-1,3.980900049E0,5.384500027E-1
3.633253720E1,5.450500250E-1,3.946662426E0,6.447374821E-1
3.635253720E1,5.670499802E-1,3.880662441E0,6.326375008E-1
3.637253720E1,4.545750022E-1,4.041949749E0,7.339749932E-1
3.639253720E1,2.811875045E-1,4.313099861E0,8.757374883E-1
3.641253720E1,2.054249942E-1,4.496387482E0,9.282624722E-1
3.643253720E1,2.517625093E-1,4.581912518E0,9.844999909E-1
3.645253720E1,6.085749865E-1,4.606387615E0,1.221412539E0
3.647253720E1,1.142487526E0,4.454862595E0,1.528037548E0
3.649253720E1,1.513875008E0,4.355862617E0,1.717512488E0
3.651253720E1,1.763025045E0,4.347337246E0,1.856799960E0
3.653253720E1,1.998837471E0,4.256999969E0,1.878662467E0
3.655253720E1,2.390987396E0,3.797612429E0,1.677087545E0
3.657253720E1,2.276175022E0,3.504324913E0,1.258124948E0
3.659253720E1,1.642162442E0,3.647325039E0,7.950249910E-1
3.661253720E1,9.079124928E-1,3.993000031E0,5.213999748E-1
3.663253720E1,4.925250113E-1,3.971137524E0,4.358749986E-1
3.665253720E1,7.038624883E-1,3.530037403E0,6.741625071E-1
3.667253720E1,1.217012525E0,3.120699883E0,9.660750031E-1
3.669253720E1,1.285349965E0,2.761549950E0,1.250699997E0
3.671253720E1,1.214537501E0,2.458637476E0,1.305699944E0
3.673253720E1,1.143725038E0,2.060299873E0,1.317937493E0
3.675253720E1,8.076750040E-1,1.643674970E0,1.215362549E0
3.677253720E1,2.017125040E-1,1.247812510E0,8.157874942E-1
3.679253720E1,-5.605875254E-1,6.418499947E-1,2.270125002E-1
3.681253720E1,-8.989750147E-1,-2.377374917E-1,-3.436124921E-1
3.683253720E1,-8.892124891E-1,-1.053799987E0,-7.955750227E-1
3.685253720E1,-8.208749890E-1,-1.562000036E0,-9.238625169E-1
3.687253720E1,-6.546375155E-1,-1.746525049E0,-9.788625240E-1
3.689253720E1,-3.577750027E-1,-1.788049936E0,-1.006912470E0
3.691253720E1,3.437500075E-2,-1.854050040E0,-9.312874675E-1
3.693253720E1,4.350500107E-1,-2.076387405E0,-7.162374854E-1
3.695253720E1,5.278624892E-1,-2.550349951E0,-5.904250145E-1
3.697253720E1,1.528999954E-1,-3.075737476E0,-6.685249805E-1
3.699253720E1,-3.077250123E-1,-3.153975010E0,-7.882875204E-1
3.701253720E1,-6.608250141E-1,-3.134449959E0,-7.723374963E-1
3.703253720E1,-7.133499980E-1,-3.456887484E0,-7.027624846E-1
3.705253720E1,-6.082999706E-1,-3.966325045E0,-4.999499917E-1
3.707253720E1,-7.206375003E-1,-4.334137440E0,-2.971374989E-1
3.709253720E1,-9.429749846E-1,-4.443999767E0,-2.873750031E-1
3.711253720E1,-1.104262471E0,-4.404950142E0,-2.128500044E-1
3.713253720E1,-1.255787492E0,-4.255899906E0,1.553750038E-2
3.715253720E1,-1.612462521E0,-4.149612427E0,1.218250021E-1
3.717253720E1,-1.827512503E0,-4.095849991E0,1.475374997E-1
3.719253720E1,-1.459837437E0,-4.204612255E0,7.424999774E-2
3.721253720E1,-1.224025011E0,-4.461187363E0,-7.232499868E-2
3.723253720E1,-1.628412485E0,-4.408662319E0,-2.641375065E-1
3.725253720E1,-2.235612392E0,-3.921225071E0,-4.083749950E-1
3.727253720E1,-2.180612564E0,-3.472837448E0,-3.154250085E-1
3.729253720E1,-1.263074994E0,-3.702462435E0,-1.480875015E-1
3.731253720E1,-9.711624980E-1,-4.138612270E0,-3.986124992E-1
3.733253720E1,-1.497650027E0,-4.203374863E0,-7.100499868E-1
3.735253720E1,-1.865462542E0,-3.745224953E0,-7.968124747E-1
3.737253720E1,-1.685887456E0,-3.304262400E0,-6.294749975E-1
3.739253720E1,-1.373075008E0,-3.207737446E0,-4.291374981E-1
3.741253720E1,-1.032212496E0,-3.459362507E0,-4.767124951E-1
3.743253720E1,-7.390624881E-1,-3.839274883E0,-5.781875253E-1
3.745253720E1,-6.888750196E-1,-3.933325052E0,-5.146625042E-1
3.747253720E1,-1.221549988E0,-3.671937466E0,-4.547125101E-1
3.749253720E1,-1.661412477E0,-3.184499979E0,-4.291374981E-1
3.751253720E1,-1.204499960E0,-3.085500002E0,-3.924250007E-1
3.753253720E1,-7.048249841E-1,-3.443549871E0,-4.071374834E-1
3.755253720E1,-8.073999882E-1,-3.730649948E0,-3.594250083E-1
3.757253720E1,-1.363312483E0,-3.619412422E0,-3.471874893E-1
3.759253720E1,-1.643124938E0,-3.292025089E0,-3.741374910E-1
3.761253720E1,-1.092025042E0,-2.781349897E0,-2.873750031E-1
3.763253720E1,-7.035874724E-1,-2.736112595E0,-1.639000028E-1
3.765253720E1,-7.878749967E-1,-2.763062477E0,-1.236125007E-1
3.767253720E1,-1.019974947E0,-2.637112379E0,-1.223749965E-1
3.769253720E1,-9.662125111E-1,-2.438012600E0,-4.551250115E-2
3.771253720E1,-7.035874724E-1,-2.568774939E0,1.707749963E-1
3.773253720E1,-5.447750092E-1,-2.617587566E0,3.075875044E-1
3.775253720E1,-3.847250044E-1,-2.646874905E0,4.065875113E-1
3.777253720E1,7.424999960E-3,-2.510062456E0,2.490125000E-1
3.779253720E1,-1.000999957E-1,-2.577300072E0,1.182499975E-1
3.781253720E1,-2.844874859E-1,-2.255962372E0,3.027749956E-1
3.783253720E1,-3.712500036E-1,-2.215674877E0,5.263500214E-1
3.785253720E1,-2.589125037E-1,-2.262150049E0,6.741625071E-1
3.787253720E1,-1.978625059E-1,-2.345200062E0,6.863999963E-1
3.789253720E1,-1.428624988E-1,-2.284149885E0,5.801125169E-1
3.791253720E1,-1.684374958E-1,-2.171674967E0,4.713499844E-1
3.793253720E1,-2.539624870E-1,-2.124099970E0,4.615874887E-1
3.795253720E1,-2.821500003E-1,-2.154624939E0,4.993999898E-1
3.797253720E1,-2.833875120E-1,-2.216912508E0,4.786374867E-1
3.799253720E1,-2.967250049E-1,-2.257200003E0,3.931125104E-1
3.801253720E1,-3.884375095E-1,-2.233962536E0,2.844874859E-1
3.803253720E1,-5.692499876E-1,-2.110625029E0,1.377750039E-1
3.805253720E1,-7.145875096E-1,-1.987149954E0,6.819999963E-2
3.807253720E1,-7.743999958E-1,-1.900524974E0,6.572499871E-2
3.809253720E1,-7.353500128E-1,-1.900524974E0,1.084875017E-1
3.811253720E1,-6.913499832E-1,-1.906574965E0,1.377750039E-1
3.813253720E1,-6.363499761E-1,-1.852812529E0,4.496249929E-2
3.815253720E1,-6.278250217E-1,-1.773474932E0,8.291249722E-2
3.817253720E1,-5.680124760E-1,-1.675712466E0,2.392500043E-1
3.819253720E1,-3.920125067E-1,-1.575474977E0,3.075875044E-1
3.821253720E1,-1.648624986E-1,-1.504662514E0,2.905375063E-1
3.823253720E1,5.871250108E-2,-1.546187520E0,3.088249862E-1
3.825253720E1,2.371875048E-1,-1.670762539E0,3.320625126E-1
3.827253720E1,2.382874936E-1,-1.634187460E0,3.821125031E-1
3.829253720E1,1.564749926E-1,-1.510712504E0,3.980624974E-1
3.831253720E1,7.590000331E-2,-1.345849991E0,3.332999945E-1
3.833253720E1,-2.186249942E-2,-1.318899989E0,1.854874939E-1
3.835253720E1,-1.794375032E-1,-1.547425032E0,6.819999963E-2
3.837253720E1,-4.201999903E-1,-1.735525012E0,-3.684999794E-2
3.839253720E1,-9.711624980E-1,-1.719712496E0,-2.213750035E-1
3.841253720E1,-1.376787543E0,-1.202849984E0,-1.528999954E-1
3.843253720E1,-6.863999963E-1,-2.694999874E-1,5.101250112E-2
3.845253720E1,7.453874946E-1,4.390375018E-1,2.490125000E-1
3.847253720E1,1.148537517E0,3.646500111E-1,3.088249862E-1
3.849253720E1,8.553875089E-1,5.368000269E-1,1.597750038E-1
3.851253720E1,3.067624867E-1,1.123237491E0,-2.103749961E-1
3.853253720E1,1.259499937E-1,1.776912451E0,-7.173374891E-1
3.855253720E1,2.187625021E-1,1.768387437E0,-1.443749964E-1
3.857253720E1,4.521000087E-1,2.145824909E0,-3.575000167E-2
3.859253720E1,8.174374700E-1,2.192300081E0,-1.883749962E-1
3.861253720E1,7.918624878E-1,2.226399899E0,-6.917625070E-1
3.863253720E1,5.878124833E-1,2.613737583E0,-7.052375078E-1
3.865253720E1,2.334749997E-1,2.902075052E0,-5.317124724E-1
3.867253720E1,1.528999954E-1,3.016887426E0,-2.091374993E-1
3.869253720E1,4.423374832E-1,2.994887590E0,-1.431374997E-1
3.871253720E1,7.856749892E-1,2.953362465E0,-1.968999952E-1
3.873253720E1,9.702000022E-1,2.858074903E0,-2.274249941E-1
3.875253720E1,9.359624982E-1,2.919125080E0,-1.786125004E-1
3.877253720E1,7.942000031E-1,3.002312422E0,-1.003749967E-1
3.879253720E1,6.953374743E-1,3.014412403E0,-1.065625027E-1
3.881253720E1,6.318125129E-1,3.025412560E0,-1.553750038E-1
3.883253720E1,5.938624740E-1,2.997362375E0,-1.968999952E-1
3.885253720E1,6.549124718E-1,3.136650085E0,-2.703250051E-1
3.887253720E1,8.369625211E-1,3.398037434E0,-3.216125071E-1
3.889253720E1,9.750124812E-1,3.390749931E0,-2.811875045E-1
3.891253720E1,9.737749696E-1,3.253937483E0,-2.861374915E-1
3.893253720E1,9.884874821E-1,3.263700008E0,-4.461874962E-1
3.895253720E1,1.100962520E0,3.475037575E0,-7.272375226E-1
3.897253720E1,1.060537457E0,3.677850008E0,-9.006249905E-1
3.899253720E1,7.563874722E-1,3.846425056E0,-8.566250205E-1
3.901253720E1,6.171000004E-1,3.804899931E0,-7.528125048E-1
3.903253720E1,7.966749668E-1,3.592324972E0,-6.307125092E-1
3.905253720E1,1.065487504E0,3.255174875E0,-5.231875181E-1
3.907253720E1,1.226775050E0,3.130599976E0,-4.131875038E-1
3.909253720E1,1.162012458E0,3.368750095E0,-2.373249978E-1
3.911253720E1,9.750124812E-1,3.668087482E0,-7.479999959E-2
3.913253720E1,9.359624982E-1,3.837899923E0,9.501250088E-2
3.915253720E1,9.396749735E-1,3.835424900E0,1.707749963E-1
3.917253720E1,8.492000103E-1,3.925899982E0,2.343000025E-1
3.919253720E1,5.803874731E-1,4.307049751E0,2.953499854E-1
3.921253720E1,5.413374901E-1,4.631962299E0,4.774000049E-1
3.923253720E1,9.970124960E-1,4.537912369E0,7.229750156E-1
3.925253720E1,1.281774998E0,4.140950203E0,7.804499865E-1
3.927253720E1,9.824374914E-1,4.109187603E0,7.792124748E-1
3.929253720E1,5.938624740E-1,4.460912704E0,7.827875018E-1
3.931253720E1,3.849999905E-1,4.761487484E0,7.510250211E-1
3.933253720E1,7.173374891E-1,4.782249928E0,9.453125000E-1
3.935253720E1,1.291537523E0,4.705249786E0,1.181125045E0
3.937253720E1,1.457637548E0,4.661387444E0,1.205600023E0
3.939253720E1,1.131487489E0,4.761487484E0,1.040599942E0
3.941253720E1,9.872499704E-1,4.854300022E0,1.087074995E0
3.943253720E1,1.642162442E0,4.820199966E0,1.540274978E0
3.945253720E1,2.474037409E0,4.296050072E0,1.815274954E0
3.947253720E1,2.730612516E0,3.696137428E0,1.739512444E0
3.949253720E1,2.453274965E0,3.409037590E0,1.393700004E0
3.951253720E1,1.695924997E0,3.683899879E0,1.088312507E0
3.953253720E1,1.352587461E0,3.716899872E0,1.017500043E0
3.955253720E1,1.540687442E0,3.270987511E0,9.112125039E-1
3.957253720E1,1.754500031E0,2.578262568E0,6.876375079E-1
3.959253720E1,1.479637504E0,2.123825073E0,7.767375112E-1
3.961253720E1,9.616749883E-1,2.031012535E0,8.659750223E-1
3.963253720E1,9.934374690E-1,2.232587576E0,9.758374691E-1
3.965253720E1,1.606687546E0,2.021250010E0,1.194599986E0
3.967253720E1,2.118599892E0,1.401812434E0,1.348462462E0
3.969253720E1,1.951262474E0,7.408499718E-1,1.266649961E0
3.971253720E1,9.372000098E-1,2.033624947E-1,9.367874861E-1
3.973253720E1,-4.457750022E-1,-6.066499949E-1,1.805374920E-1
3.975253720E1,-1.149500012E0,-1.367849946E0,-3.423750103E-1
3.977253720E1,-1.559937477E0,-1.877287507E0,-6.220499873E-1
3.979253720E1,-1.570937514E0,-2.082437515E0,-6.745749712E-1
3.981253720E1,-1.338837504E0,-2.363487482E0,-5.867124796E-1
3.983253720E1,-1.265550017E0,-2.866874933E0,-4.754749835E-1
3.985253720E1,-1.584412456E0,-3.062262535E0,-4.144249856E-1
3.987253720E1,-1.908224940E0,-2.981687546E0,-4.009499848E-1
3.989253720E1,-1.952224970E0,-2.913212538E0,-3.093749881E-1
3.991253720E1,-1.651649952E0,-3.004925013E0,-1.480875015E-1
3.993253720E1,-1.675987482E0,-3.062262535E0,-1.553750038E-1
3.995253720E1,-2.079274893E0,-3.006162405E0,-2.543750107E-1
3.997253720E1,-2.078037500E0,-2.941400051E0,-2.250874937E-1
3.999253720E1,-1.768937469E0,-2.993925095E0,-1.358499974E-1
4.001253720E1,-1.838512540E0,-2.990212440E0,-7.108750194E-2
4.003253720E1,-1.963087440E0,-2.853399992E0,-3.079999983E-2
4.005253720E1,-1.752987504E0,-2.783824921E0,4.496249929E-2
4.007253720E1,-1.656462550E0,-3.017162561E0,1.243000031E-1
4.009253720E1,-1.689462543E0,-3.045212507E0,2.012999952E-1
4.011253720E1,-1.704174995E0,-2.904687405E0,2.587749958E-1
4.013253720E1,-1.715175033E0,-2.980449915E0,2.673000097E-1
4.015253720E1,-1.878800035E0,-3.078212500E0,3.027749956E-1
4.017253720E1,-1.804275036E0,-2.925450087E0,3.173500001E-1
4.019253720E1,-1.542887449E0,-2.755637407E0,3.613499999E-1
4.021253720E1,-1.589362502E0,-2.688537598E0,3.858250082E-1
4.023253720E1,-1.911800027E0,-2.556537390E0,4.530625045E-1
4.025253720E1,-1.895987511E0,-2.440487385E0,4.981625080E-1
4.027253720E1,-1.577124953E0,-2.389199972E0,3.735874891E-1
4.029253720E1,-1.367025018E0,-2.108150005E0,3.235374987E-1
4.031253720E1,-1.435362458E0,-1.945624948E0,4.603500068E-1
4.033253720E1,-1.423125029E0,-2.004337549E0,5.568749905E-1
4.035253720E1,-1.156787515E0,-2.045862436E0,4.761624932E-1
4.037253720E1,-8.721625209E-1,-1.777050018E0,2.330625057E-1
4.039253720E1,-1.028499961E0,-1.496137500E0,1.524875015E-1
4.041253720E1,-1.282600045E0,-1.419137478E0,2.282499969E-1
