"Time (s)","Acceleration x (m/s^2)","Acceleration y (m/s^2)","Acceleration z (m/s^2)"
3.033225000E-2,-1.009950042E0,5.695050240E0,6.717000484E0
4.943093000E-2,-1.042050004E0,5.589000225E0,6.993000507E0
6.852936800E-2,-8.880000710E-1,5.182050228E0,7.621950150E0
8.762784600E-2,-7.879500389E-1,4.825050354E0,8.005949974E0
1.067263740E-1,-6.130500436E-1,4.564949989E0,8.341050148E0
1.258248290E-1,-6.820500493E-1,4.294050217E0,8.820000648E0
1.449235090E-1,-7.849500179E-1,4.083000183E0,9.364950180E0
1.640219910E-1,-1.234950066E0,4.066950321E0,9.375000000E0
1.831204410E-1,-1.498950124E0,3.733950138E0,9.487950325E0
2.022189750E-1,-1.671000123E0,3.207000256E0,9.688950539E0
2.213174150E-1,-2.233950138E0,3.066000223E0,9.811050415E0
2.404161300E-1,-2.205000162E0,2.944050074E0,9.693000793E0
2.595146080E-1,-1.867950082E0,2.734950066E0,9.700950623E0
2.786130980E-1,-1.282950044E0,2.326050043E0,9.832050323E0
2.977115310E-1,-1.077000022E0,2.416950226E0,1.038300037E1
3.168100340E-1,-1.561050057E0,2.446050167E0,1.008105087E1
3.359085130E-1,-1.635000110E0,2.368950129E0,9.708000183E0
3.550072030E-1,-1.855950117E0,2.656050205E0,9.732000351E0
3.741056460E-1,-1.978050113E0,2.628000021E0,9.889950752E0
3.932041590E-1,-1.333950043E0,2.256000042E0,1.031100082E1
4.123026380E-1,-6.199500561E-1,2.227950096E0,1.083795071E1
4.314010940E-1,5.020500422E-1,3.118050098E0,9.804000854E0
4.504997850E-1,1.411950111E0,2.659050226E0,1.138395023E1
4.695982380E-1,1.759050131E0,1.147950053E0,1.127895069E1
4.886966940E-1,1.890000105E0,8.130000234E-1,9.793950081E0
5.077952540E-1,2.029050112E0,1.207950115E0,1.043100071E1
5.268937570E-1,8.149500489E-1,2.460000038E0,1.065405083E1
5.459922270E-1,-5.580000281E-1,3.073050261E0,1.025895023E1
5.650908840E-1,-1.003050089E0,3.436950207E0,9.421050072E0
5.841893280E-1,-2.730000019E-1,3.906000137E0,8.923050880E0
6.032879080E-1,8.730000257E-1,4.306050301E0,8.841000557E0
6.223863860E-1,1.645950079E0,4.402050018E0,8.447999954E0
6.414850530E-1,1.246050000E0,4.296000004E0,8.347949982E0
6.605832950E-1,5.539500117E-1,3.801000118E0,8.542050362E0
6.796820190E-1,-1.200000048E-1,3.445950270E0,8.542050362E0
6.987804960E-1,-4.789500237E-1,3.838950157E0,8.451000214E0
7.178790440E-1,-1.507950068E0,4.645950317E0,8.105999947E0
7.369774740E-1,-1.149000049E0,4.690950394E0,7.861950397E0
7.560759350E-1,-5.505000427E-2,3.922950268E0,7.254000187E0
7.751746210E-1,4.060500264E-1,3.475050211E0,6.768000126E0
7.942731130E-1,9.379500151E-1,3.351000071E0,6.592950344E0
8.133715940E-1,1.087950110E0,3.952050209E0,6.478050232E0
8.324701060E-1,-3.124950171E0,5.890950203E0,5.475000381E0
8.515685510E-1,-1.048950076E0,3.592050076E0,6.115950108E0
8.706670460E-1,9.540000558E-1,2.934000254E0,7.246950150E0
8.897657460E-1,9.640500546E-1,2.647050142E0,7.390050411E0
9.088641950E-1,1.045050025E0,2.272950172E0,6.744000435E0
9.279626380E-1,1.810500026E-1,3.640050173E0,6.721950531E0
9.470610880E-1,-4.789500237E-1,4.227000237E0,7.117050171E0
9.661596490E-1,6.889500618E-1,2.539050102E0,7.372950554E0
9.852580890E-1,1.363950014E0,2.649000168E0,6.829950333E0
1.004356564E0,1.312950015E0,2.730000019E0,7.618050575E0
1.023455007E0,1.783050060E0,2.232000113E0,8.092050552E0
1.042553716E0,2.034000158E0,1.981050134E0,9.061050415E0
1.061652185E0,2.448000193E0,1.504950047E0,9.334050179E0
1.080750721E0,2.484000206E0,2.422049999E0,9.693000793E0
1.099849170E0,2.644950151E0,1.845000029E0,1.011705017E1
1.118947627E0,2.452950001E0,1.792050123E0,1.023495007E1
1.138046322E0,2.245050192E0,1.737000108E0,1.024200058E1
1.157144800E0,2.182950020E0,1.624050021E0,1.010295010E1
1.176243257E0,1.870950103E0,1.675050020E0,1.008405018E1
1.195341727E0,2.166000128E0,1.414050102E0,1.006905079E1
1.214440293E0,2.779050112E0,1.033050060E0,1.009605026E1
1.233538723E0,4.042950153E0,8.290500641E-1,1.019205093E1
1.252637194E0,3.792000294E0,1.330050111E0,1.024905014E1
1.271735879E0,3.625950098E0,1.195950031E0,1.002600002E1
1.290834333E0,3.744000196E0,1.204950094E0,9.175950050E0
1.309932800E0,3.954000235E0,1.308000088E0,9.603000641E0
1.329031350E0,4.194000244E0,3.529500067E-1,1.016505051E1
1.348129814E0,4.290000439E0,4.939500093E-1,1.034205055E1
1.367228270E0,4.938000202E0,4.150500298E-1,1.004805088E1
1.386326723E0,4.945950031E0,3.979500234E-1,8.961000443E0
1.405425398E0,4.716000080E0,4.699500203E-1,8.338050842E0
1.424523819E0,5.721000195E0,2.880000174E-1,7.789950371E0
1.443622341E0,5.808000088E0,1.140000075E-1,7.627050400E0
1.462720737E0,5.548950195E0,-1.219500080E-1,8.080050468E0
1.481819260E0,5.511000156E0,-7.110000253E-1,9.235950470E0
1.500917713E0,5.503050327E0,-1.084950089E0,1.044105053E1
1.520016413E0,5.463000298E0,-1.095000029E0,1.048605061E1
1.539114881E0,5.563050270E0,-9.319500327E-1,9.613950729E0
1.558213358E0,5.752050400E0,-8.119500279E-1,8.221050262E0
1.577311870E0,5.938950062E0,-6.640500426E-1,7.150950432E0
1.596410319E0,6.229050159E0,-6.349500418E-1,6.600000381E0
1.615508775E0,6.444000244E0,-6.640500426E-1,6.745950222E0
1.634607267E0,6.592950344E0,-7.500000596E-1,7.309050560E0
1.653705981E0,6.993000507E0,-8.359500170E-1,8.005949974E0
1.672804435E0,7.182000160E0,-6.799500585E-1,8.674050331E0
1.691902911E0,7.384950161E0,-6.300000548E-1,8.745000839E0
1.711001477E0,7.354050159E0,-5.100000501E-1,8.472000122E0
1.730099925E0,7.249050140E0,-3.720000088E-1,8.194950104E0
1.749198402E0,7.210950375E0,-3.690000176E-1,8.119950294E0
1.768296830E0,7.074000359E0,-3.829500079E-1,8.250000000E0
1.787395510E0,7.183950424E0,-4.789500237E-1,8.329050064E0
1.806493974E0,7.321050167E0,-3.760500252E-1,8.251950264E0
1.825592450E0,7.435950279E0,-3.160500228E-1,8.353050232E0
1.844690987E0,7.336950302E0,-3.139500022E-1,8.347949982E0
1.863789391E0,7.227000237E0,-3.280500174E-1,8.368950844E0
1.882887853E0,7.291950226E0,-3.570000231E-1,8.548950195E0
1.901986524E0,7.411950588E0,-3.550500274E-1,8.800050735E0
1.921084949E0,7.467000484E0,-4.219500124E-1,8.980050087E0
1.940183434E0,7.333050251E0,-4.890000224E-1,8.946000099E0
1.959281971E0,7.405050278E0,-4.030500054E-1,9.006000519E0
1.978380429E0,7.479000568E0,-4.099500179E-1,9.162000656E0
1.997478881E0,7.237050533E0,-4.740000367E-1,9.222000122E0
2.016577552E0,7.108050346E0,-5.440500379E-1,9.298050880E0
2.035675997E0,7.225050449E0,-5.700000525E-1,9.447000504E0
2.054774449E0,6.871050358E0,-3.880500197E-1,9.591000557E0
2.073872945E0,6.661950111E0,-5.610000491E-1,9.720000267E0
2.092971515E0,6.484950542E0,-6.349500418E-1,1.004805088E1
2.112069978E0,6.187950134E0,-6.520500183E-1,1.043100071E1
2.131168464E0,5.677950382E0,-6.109500527E-1,1.077795029E1
2.150267202E0,5.656950474E0,-5.410500169E-1,1.126905060E1
2.169365633E0,6.088050365E0,-7.639500499E-1,1.169805050E1
2.188464089E0,5.452950478E0,-5.800500512E-1,1.218600082E1
2.207562621E0,5.676000118E0,-7.909500599E-1,1.240905094E1
2.226661118E0,4.711050034E0,-3.450000286E-1,1.229805088E1
2.245759575E0,4.275000095E0,-5.100000501E-1,1.274895096E1
2.264858070E0,4.357050419E0,-6.250500083E-1,1.318200016E1
2.283956770E0,4.048050404E0,-5.560500026E-1,1.281105042E1
2.303055209E0,3.802950144E0,-4.189500213E-1,1.184400082E1
2.322153750E0,2.980050087E0,9.900000691E-2,1.111095047E1
2.341252218E0,2.427000046E0,-1.300500035E-1,1.157505035E1
2.360350665E0,1.222050071E0,-1.200000048E-1,1.238505077E1
2.379449098E0,1.840050101E0,-2.350500077E-1,1.167405033E1
2.398547802E0,2.245050192E0,6.019500494E-1,1.012200069E1
2.417646271E0,1.701000094E0,9.300000668E-1,9.094950676E0
2.436744747E0,9.880500436E-1,1.014000058E0,8.692950249E0
2.455843209E0,5.929500461E-1,1.216950059E0,8.728950500E0
2.474941773E0,9.400500655E-1,1.378050089E0,8.893950462E0
2.494040223E0,9.705000371E-2,1.405950069E0,8.515950203E0
2.513138690E0,-2.659500241E-1,1.672050118E0,7.816050529E0
2.532237389E0,-1.050000042E-1,2.149049997E0,6.982950211E0
2.551335845E0,-6.460500360E-1,2.505000114E0,7.057050228E0
2.570434286E0,-1.402950048E0,2.515050173E0,7.723050594E0
2.589532823E0,-2.076000214E0,2.347050190E0,7.606050491E0
2.608631319E0,-2.650950193E0,2.890950203E0,7.182000160E0
2.627729805E0,-2.931000233E0,2.946000099E0,7.060050488E0
2.646828485E0,-3.235050201E0,2.865000248E0,7.249050140E0
2.665926949E0,-3.984000206E0,2.742000103E0,7.483950138E0
2.685025400E0,-4.173000336E0,2.946000099E0,7.033050537E0
2.704123923E0,-3.868950129E0,3.489000082E0,5.962950230E0
2.723222386E0,-3.862050295E0,3.949050188E0,5.356950283E0
2.742320848E0,-3.931050301E0,3.940050125E0,5.797950268E0
2.761419300E0,-5.401950359E0,4.098000050E0,5.986950397E0
2.780517985E0,-5.607000351E0,3.802950144E0,6.018000126E0
2.799616463E0,-5.926050186E0,3.990000248E0,6.106950283E0
2.818715000E0,-5.955000401E0,4.131000042E0,6.064050198E0
2.837813449E0,-5.935050488E0,4.006950378E0,6.070950508E0
2.856911901E0,-6.757050514E0,4.075950146E0,6.127950191E0
2.876010358E0,-6.448050499E0,4.078050137E0,5.593950272E0
2.895109029E0,-6.381000519E0,4.489950180E0,4.519050121E0
2.914207521E0,-6.208050251E0,4.572000027E0,4.009050369E0
2.933305968E0,-6.844950199E0,4.842000008E0,3.811050177E0
2.952404425E0,-6.570000172E0,4.608000278E0,4.278000355E0
2.971502971E0,-6.807000160E0,4.641000271E0,4.503000259E0
2.990601659E0,-6.690000534E0,4.770000458E0,3.669000149E0
3.009700122E0,-6.634950161E0,5.083950043E0,2.259000063E0
3.028798569E0,-6.364050388E0,5.188950062E0,1.411950111E0
3.047897040E0,-6.417000294E0,5.130000114E0,1.000050068E0
3.066995582E0,-7.020000458E0,5.034000397E0,1.014000058E0
3.086094055E0,-7.237950325E0,4.483050346E0,1.708950043E0
3.105192526E0,-7.221000195E0,4.344000340E0,2.266050100E0
3.124291016E0,-7.291050434E0,4.363049984E0,1.981050134E0
3.143389682E0,-7.329000473E0,4.320000172E0,1.573950052E0
3.162488151E0,-7.444050312E0,4.324950218E0,1.321050048E0
3.181586677E0,-7.468050480E0,4.318050385E0,9.040500522E-1
3.200685137E0,-7.570950508E0,4.251000404E0,5.740500093E-1
3.219783851E0,-7.615950584E0,4.246050358E0,2.220000178E-1
3.238882291E0,-7.638000488E0,4.320000172E0,-1.170000061E-1
3.257980767E0,-7.366950512E0,4.636050224E0,-5.080500245E-1
3.277079243E0,-6.627000332E0,5.071950436E0,-1.432050109E0
3.296177755E0,-5.892000198E0,5.704050064E0,-2.491950035E0
3.315276219E0,-5.236050129E0,6.037050247E0,-3.259050131E0
3.334374899E0,-4.959000111E0,6.130050182E0,-3.565050125E0
3.353473354E0,-4.983000278E0,6.013050079E0,-3.337950230E0
3.372571848E0,-5.344050407E0,5.367000103E0,-2.047049999E0
3.391670291E0,-6.192000389E0,4.624050140E0,-1.170000061E-1
3.410768852E0,-6.357000351E0,4.165050030E0,1.098000050E0
3.429867315E0,-6.034050465E0,3.934950113E0,1.744050026E0
3.448965976E0,-5.518950462E0,3.991950274E0,1.996050119E0
3.468064444E0,-5.008950233E0,4.252950191E0,1.797000051E0
3.487162916E0,-4.543950081E0,4.323000431E0,1.771050096E0
3.506261338E0,-4.105950356E0,4.279950142E0,1.962000132E0
3.525359885E0,-4.200000286E0,4.180950165E0,2.584950209E0
3.544458343E0,-4.137000084E0,3.934950113E0,3.415950060E0
3.563556986E0,-3.912000179E0,3.693000078E0,4.135950089E0
3.582655449E0,-4.318950176E0,3.513000250E0,5.757000446E0
3.601753981E0,-4.183050156E0,3.172950268E0,7.191000462E0
3.620852463E0,-4.461000443E0,3.006000042E0,6.397050381E0
3.639950906E0,-4.765050411E0,2.628000021E0,6.792000294E0
3.659049387E0,-4.848000050E0,2.046000004E0,8.784000397E0
3.678148054E0,-4.389000416E0,2.011950016E0,9.421050072E0
3.697246531E0,-4.135050297E0,2.287950039E0,8.854949951E0
3.716345049E0,-4.236000061E0,2.142000198E0,9.315000534E0
3.735443508E0,-3.634950161E0,2.232000113E0,1.016295052E1
3.754541979E0,-2.908950090E0,2.556000233E0,9.523050308E0
3.773640674E0,-2.569050074E0,2.617950201E0,9.540000916E0
3.792739142E0,-3.007050037E0,2.272950172E0,1.059900093E1
3.811837604E0,-3.124950171E0,2.014950037E0,1.120200062E1
3.830936130E0,-1.920000076E0,2.335050106E0,1.003605080E1
3.850034604E0,-1.104000092E0,2.617950201E0,8.764950752E0
3.869133065E0,-1.558950067E0,2.095950127E0,1.046895027E1
3.888231742E0,-2.481000185E0,1.030950069E0,1.307700062E1
3.907330223E0,-2.710050106E0,1.099950075E0,1.240395069E1
3.926428750E0,-2.119050026E0,1.732050061E0,8.476950645E0
3.945527223E0,-7.590000629E-1,2.164950132E0,7.165050507E0
3.964625685E0,-6.495000422E-2,1.651050091E0,1.021500015E1
3.983724147E0,-7.230000496E-1,9.640500546E-1,1.309095097E1
4.002822856E0,-1.255050063E0,1.035000086E0,1.238205051E1
4.021921362E0,-7.695000619E-2,1.708050132E0,9.646050453E0
4.041019899E0,1.303950071E0,2.272950172E0,8.629950523E0
4.060118382E0,1.510050058E0,1.822950125E0,1.066305065E1
4.079217082E0,6.979500055E-1,1.162050009E0,1.272900105E1
4.098315550E0,4.660500288E-1,1.014000058E0,1.219995022E1
4.117414021E0,9.660000205E-1,1.264950037E0,9.693000793E0
4.136512568E0,1.486050129E0,1.581000090E0,9.175950050E0
4.155611051E0,1.917000055E0,1.135950089E0,1.104900074E1
4.174709756E0,1.591050029E0,8.389500380E-1,1.177200031E1
4.193808233E0,1.687050104E0,8.680500388E-1,1.035705090E1
4.212906676E0,2.410050154E0,1.165050030E0,8.282999992E0
4.232005173E0,3.303000212E0,1.336950064E0,7.780050278E0
4.251103871E0,4.093050003E0,1.063950062E0,9.097050667E0
4.270202089E0,3.805950165E0,7.050000429E-1,1.063200092E1
4.289300761E0,3.294000149E0,3.979500234E-1,1.157100010E1
4.308399190E0,3.562050104E0,4.129500091E-1,1.124295044E1
4.327497688E0,4.111950397E0,5.730000138E-1,9.670050621E0
4.346596171E0,4.492950439E0,6.690000296E-1,8.494050026E0
4.365694617E0,4.699050426E0,5.179499984E-1,9.001950264E0
4.384793322E0,4.596000195E0,2.380500138E-1,9.990000725E0
4.403891786E0,4.929000378E0,3.070500195E-1,9.933000565E0
4.422990312E0,5.649000168E0,4.420500100E-1,8.935050011E0
4.442088781E0,5.692950249E0,3.409500122E-1,8.520000458E0
4.461187471E0,5.451000214E0,2.239500135E-1,9.466050148E0
4.480285896E0,5.475000381E0,-1.200000010E-2,9.898950577E0
4.499384373E0,5.484000206E0,1.060500070E-1,9.090000153E0
4.518482889E0,5.745000362E0,9.900000691E-2,8.130000114E0
4.537581348E0,5.854950428E0,-1.200000010E-2,8.002950668E0
4.556679843E0,5.913000107E0,-1.609500051E-1,8.665950775E0
4.575778524E0,5.902950287E0,-1.660500020E-1,8.965950012E0
4.594877075E0,6.250050068E0,-9.405000508E-2,8.452950478E0
4.613975513E0,6.375000477E0,-5.805000290E-2,8.105999947E0
4.633073940E0,5.961000443E0,-1.200000048E-1,8.563050270E0
4.652172626E0,6.022950172E0,-1.150500029E-1,9.006000519E0
4.671271075E0,6.727050304E0,3.000000026E-3,8.707050323E0
4.690369636E0,6.727050304E0,5.595000088E-2,8.695050240E0
4.709468108E0,6.478050232E0,-5.295000225E-2,9.640950203E0
4.728566580E0,6.423000336E0,-4.605000094E-2,1.065405083E1
4.747665270E0,6.801000118E0,1.300500035E-1,1.116405010E1
4.766763758E0,6.535050392E0,2.119500041E-1,1.111995029E1
4.785862284E0,6.198000431E0,1.210500076E-1,1.101795006E1
4.804960734E0,6.121050358E0,0.000000000E0,1.096695042E1
4.824059413E0,6.193050385E0,-2.895000204E-2,1.100805092E1
4.843157656E0,6.130950451E0,1.039500013E-1,1.110105038E1
4.862256375E0,6.669000149E0,2.620500028E-1,1.052400017E1
4.881354858E0,7.282050133E0,3.070500195E-1,9.448950768E0
4.900453414E0,6.880050182E0,2.260500044E-1,9.403950691E0
4.919551906E0,6.061050415E0,-8.400000632E-2,1.020300007E1
4.938650600E0,5.973000050E0,-4.980000257E-1,1.048095036E1
4.957749055E0,6.373050213E0,-3.090000153E-1,9.271950722E0
4.976847625E0,6.600000381E0,-5.295000225E-2,8.425050735E0
4.995946050E0,6.066000462E0,-6.705000252E-2,9.391950607E0
5.015044502E0,5.320950031E0,-8.205000311E-2,1.038495064E1
5.034143183E0,5.841000080E0,-8.400000632E-2,9.640950203E0
5.053241646E0,5.877000332E0,3.100500107E-1,9.046950340E0
5.072340107E0,4.785000324E0,4.579500258E-1,9.862950325E0
5.091438630E0,4.354050159E0,1.729500145E-1,1.020600033E1
5.110537327E0,4.555050373E0,3.030000031E-1,9.636000633E0
5.129635800E0,4.414050102E0,5.230500102E-1,9.277050018E0
5.148734189E0,3.700950146E0,5.179499984E-1,9.624000549E0
5.167832736E0,3.394050121E0,4.300500154E-1,1.025400066E1
5.186931199E0,3.174000263E0,5.520000458E-1,1.012695026E1
5.206029665E0,3.175950050E0,7.890000343E-1,9.373050690E0
5.225128375E0,2.980050087E0,1.117050052E0,9.172050476E0
5.244226848E0,2.697000027E0,1.287000060E0,9.349050522E0
5.263325394E0,2.263950109E0,1.363050103E0,9.283950806E0
5.282423868E0,1.993050098E0,1.507050037E0,9.282000542E0
5.301522544E0,2.116050005E0,1.765950084E0,9.255000114E0
5.320621012E0,2.059950113E0,1.900050044E0,9.151950836E0
5.339719534E0,1.189050078E0,1.903950095E0,9.163949966E0
5.358818007E0,9.880500436E-1,1.840050101E0,9.030000687E0
5.377916469E0,4.900500178E-1,1.792050123E0,9.787050247E0
5.397015169E0,8.805000782E-2,1.693950057E0,1.016805077E1
5.416113623E0,-2.200500071E-1,1.717950106E0,9.484950066E0
5.435212126E0,-7.395000011E-2,2.041050196E0,8.563050270E0
5.454310832E0,-3.469500244E-1,2.272950172E0,8.470050812E0
5.473409306E0,-6.180000305E-1,2.232000113E0,8.989950180E0
5.492507801E0,-8.380500674E-1,2.280000210E0,9.480000496E0
5.511606313E0,-1.317000031E0,2.299950123E0,9.376950264E0
5.530704772E0,-1.591950059E0,2.380950212E0,9.100049973E0
5.549803486E0,-1.810050130E0,2.485950232E0,8.869950294E0
5.568901941E0,-2.322000027E0,2.472000122E0,8.938950539E0
5.588000472E0,-2.205000162E0,2.719050169E0,8.305050850E0
5.607098946E0,-2.326950073E0,2.977050066E0,7.833000183E0
5.626197402E0,-2.481000185E0,3.121050119E0,8.034000397E0
5.645296093E0,-2.497050047E0,3.310050249E0,8.178000450E0
5.664394575E0,-2.634000063E0,3.454050064E0,8.131950378E0
5.683493078E0,-3.060000181E0,3.528000116E0,8.173049927E0
5.702591551E0,-3.249000072E0,3.667050123E0,8.092050552E0
5.721690008E0,-3.400050163E0,3.741000175E0,7.857000351E0
5.740788683E0,-3.603000164E0,3.798000097E0,7.632000446E0
5.759887152E0,-3.763950109E0,3.837000132E0,7.894950390E0
5.778985664E0,-4.066050053E0,3.697950125E0,8.484000206E0
5.798084123E0,-4.615950108E0,3.601950169E0,8.404950142E0
5.817182803E0,-5.052000046E0,3.573000193E0,8.032050133E0
5.836281253E0,-4.825050354E0,3.781950235E0,7.357050419E0
5.855379685E0,-4.738050461E0,4.050000191E0,6.909000397E0
5.874478222E0,-4.887000084E0,4.045050144E0,7.122000217E0
5.893576685E0,-5.208000183E0,3.970950127E0,7.680000305E0
5.912675405E0,-5.434950352E0,4.059000015E0,7.468950272E0
5.931773849E0,-5.473050117E0,4.246050358E0,6.792000294E0
5.950872405E0,-5.445000172E0,4.417950153E0,6.289050102E0
5.969970869E0,-5.607000351E0,4.516950130E0,5.878950119E0
5.989069568E0,-5.611950397E0,4.521000385E0,5.626050472E0
6.008168060E0,-5.880000114E0,4.591050148E0,5.247000217E0
6.027266517E0,-5.836950302E0,4.720050335E0,4.974000454E0
6.046365030E0,-5.785050392E0,4.666950226E0,5.344950199E0
6.065463512E0,-6.177000523E0,4.660050392E0,5.242950439E0
6.084562226E0,-6.402000427E0,4.665000439E0,4.905000210E0
6.103660713E0,-6.393000126E0,4.777950287E0,4.729950428E0
6.122759260E0,-6.304050446E0,4.806000233E0,4.198950291E0
6.141857733E0,-6.225000381E0,4.957050323E0,3.511050224E0
6.160956404E0,-6.117000103E0,5.110050201E0,2.925000191E0
6.180054830E0,-6.286950111E0,5.119950294E0,2.784000158E0
6.199153372E0,-6.484050274E0,5.155950069E0,2.962950230E0
6.218251839E0,-6.910050392E0,4.981050014E0,3.567000151E0
6.237350292E0,-7.330950260E0,4.644000053E0,4.345050335E0
6.256448996E0,-7.585050583E0,4.531050205E0,4.548000336E0
6.275547498E0,-7.615950584E0,4.593000412E0,4.111950397E0
6.294646030E0,-7.678950310E0,4.702950001E0,3.265050173E0
6.313744503E0,-7.282950401E0,4.906949997E0,2.368950129E0
6.332843164E0,-6.747000217E0,5.221050262E0,8.680500388E-1
6.351941614E0,-6.247050285E0,5.533950329E0,-8.980500698E-1
6.371040075E0,-5.775000095E0,5.874000072E0,-2.241000175E0
6.390138645E0,-5.445000172E0,6.019950390E0,-2.875950098E0
6.409237156E0,-5.548050404E0,5.758950233E0,-2.935050249E0
6.428335847E0,-6.096000195E0,5.464950085E0,-2.370000124E0
6.447434391E0,-6.211050510E0,5.146050453E0,-1.681050062E0
6.466532840E0,-6.283050060E0,4.845000267E0,-1.960500032E-1
6.485631276E0,-6.430950165E0,4.632000446E0,4.830000103E-1
6.504729939E0,-6.445050240E0,4.849050045E0,3.289500177E-1
6.523828435E0,-6.064950466E0,4.957050323E0,6.310500503E-1
6.542926977E0,-5.851950169E0,4.906949997E0,1.840050101E0
6.562025459E0,-6.055050373E0,4.729950428E0,2.701950073E0
6.581124183E0,-6.394950390E0,4.579050064E0,3.016050100E0
6.600222646E0,-6.345000267E0,4.512000084E0,3.604950190E0
6.619321075E0,-5.689050198E0,4.744050026E0,3.844050169E0
6.638419606E0,-5.575950146E0,4.725000381E0,4.527000427E0
6.657518050E0,-5.782050133E0,4.519050121E0,5.191950321E0
6.676616735E0,-5.641050339E0,4.624050140E0,5.182950020E0
6.695715213E0,-5.598000050E0,4.672049999E0,5.317050457E0
6.714813779E0,-5.794050217E0,4.390050411E0,5.989950180E0
6.733912242E0,-5.860950470E0,3.991950274E0,7.147950172E0
6.753010690E0,-5.440050125E0,4.033050060E0,7.672950268E0
6.772109346E0,-5.635950089E0,4.042950153E0,7.536000252E0
6.791207868E0,-5.902050495E0,3.894000292E0,7.831050396E0
6.810306334E0,-5.895000458E0,3.910950184E0,7.915050507E0
6.829405000E0,-4.978050232E0,4.394999981E0,6.454050541E0
6.848503497E0,-4.678050041E0,4.651050091E0,5.614050388E0
6.867602039E0,-4.401000023E0,4.438050270E0,6.804000378E0
6.886700536E0,-4.417050362E0,4.219950199E0,7.989000320E0
6.905798994E0,-4.528050423E0,4.246050358E0,7.279950142E0
6.924897655E0,-4.312050343E0,4.264950275E0,6.423000336E0
6.943996114E0,-3.838050127E0,4.085999966E0,6.898950100E0
6.963094479E0,-3.571950197E0,3.741000175E0,8.041049957E0
6.982193035E0,-3.697050095E0,3.339000225E0,8.326050758E0
7.001291517E0,-3.429000139E0,3.327000141E0,7.941000462E0
7.020390208E0,-3.148950100E0,3.250050068E0,7.279950142E0
7.039488642E0,-3.141000032E0,2.902950048E0,8.226000786E0
7.058587193E0,-3.517050266E0,2.508000135E0,9.837000847E0
7.077685637E0,-3.070050240E0,2.556000233E0,9.243000031E0
7.096784295E0,-2.392050028E0,2.848050117E0,8.235000610E0
7.115882758E0,-1.954050064E0,2.902950048E0,8.548950195E0
7.134981309E0,-1.935000062E0,2.842950106E0,9.454050064E0
7.154079834E0,-1.365000010E0,3.115950108E0,8.137050629E0
7.173178521E0,-9.120000601E-1,3.138000250E0,7.440000534E0
7.192277113E0,-7.399500608E-1,2.659050226E0,9.303000450E0
7.211375655E0,-1.456050038E0,2.026950121E0,1.170705032E1
7.230474128E0,-1.642950058E0,1.918950081E0,1.123995018E1
7.249572590E0,-1.032000065E0,2.314050198E0,8.989950180E0
7.268671270E0,-1.939500123E-1,2.589000225E0,7.735050201E0
7.287769734E0,2.860500216E-1,2.221050024E0,9.028050423E0
7.306868280E0,3.705000132E-2,1.633950114E0,1.143195057E1
7.325966796E0,-5.440500379E-1,1.260000110E0,1.234395027E1
7.345065248E0,-4.789500237E-1,1.258050084E0,1.130205059E1
7.364163919E0,1.140000075E-1,1.390050054E0,9.009000778E0
7.383262369E0,6.550500393E-1,1.440000057E0,8.500950813E0
7.402360866E0,8.730000257E-1,1.258050084E0,9.661950111E0
7.421459316E0,7.699500322E-1,1.114050031E0,1.046700096E1
7.440557987E0,1.261050105E0,1.213050008E0,9.841950417E0
7.459656547E0,1.696950078E0,1.441950083E0,9.076050758E0
7.478755022E0,2.319000006E0,1.549950123E0,8.595000267E0
7.497853513E0,2.830950022E0,1.507050037E0,8.131950378E0
7.516952189E0,2.769000053E0,1.106999993E0,9.178950310E0
7.536050662E0,2.359950066E0,6.979500055E-1,1.084995079E1
7.555149160E0,2.584950209E0,6.330000162E-1,1.118805027E1
7.574247604E0,3.382050276E0,1.021050096E0,9.150000572E0
7.593346075E0,4.147950172E0,1.135950089E0,8.237999916E0
7.612444779E0,4.394999981E0,9.180000424E-1,9.691050529E0
7.631543276E0,4.098000050E0,6.120000482E-1,1.077105045E1
7.650641813E0,4.206000328E0,5.370000005E-1,1.039695072E1
7.669740300E0,4.630050182E0,4.579500258E-1,9.516000748E0
7.688838996E0,4.783050060E0,2.400000095E-1,9.102000237E0
7.707937449E0,4.996050358E0,1.039500013E-1,9.688950539E0
7.727035986E0,5.020050049E0,3.000000119E-2,1.040700054E1
7.746134439E0,5.089050293E0,1.399500072E-1,9.931050301E0
7.765233116E0,5.532000065E0,2.959500253E-1,8.836050034E0
7.784331598E0,6.379950523E0,3.340500295E-1,8.187000275E0
7.803430165E0,6.231000423E0,3.900000080E-2,8.614050865E0
7.822528599E0,6.174000263E0,-2.490000129E-1,9.732000351E0
7.841627056E0,5.800050259E0,-2.400000095E-1,9.957000732E0
7.860725736E0,5.985000134E0,4.200000316E-2,8.725950241E0
7.879824200E0,6.274050236E0,-7.950000465E-3,7.057050228E0
7.898922707E0,6.705000401E0,1.660500020E-1,7.234950542E0
7.918021152E0,7.354050159E0,-5.505000427E-2,8.994000435E0
7.937119842E0,7.062000275E0,-2.449500114E-1,9.837000847E0
7.956218301E0,6.382050514E0,-3.499500155E-1,9.229050636E0
7.975316792E0,6.163950443E0,-3.190500140E-1,8.472000122E0
7.994415342E0,6.346050262E0,-1.319999993E-1,8.143950462E0
8.013513806E0,6.793950558E0,1.450500041E-1,8.223000526E0
8.032612477E0,7.273050308E0,3.289500177E-1,8.728950500E0
8.051711022E0,7.155000210E0,3.150000274E-1,8.419950485E0
8.070809455E0,7.191000462E0,3.150000274E-1,7.966950417E0
8.089908135E0,7.372950554E0,2.599500120E-1,7.933950424E0
8.109006614E0,7.359000206E0,1.609500051E-1,8.338050842E0
8.128105100E0,7.354050159E0,3.705000132E-2,9.013950348E0
8.147203611E0,7.174950123E0,-1.500000060E-2,9.571050644E0
8.166302066E0,7.045050144E0,-9.600000083E-2,9.913950920E0
8.185400741E0,7.141050339E0,-5.805000290E-2,1.014405060E1
8.204499177E0,6.868050098E0,-8.205000311E-2,1.046895027E1
8.223597693E0,6.637950420E0,-2.370000184E-1,1.093905067E1
8.242696157E0,6.385050297E0,-2.639999986E-1,1.118805027E1
8.261794842E0,6.693000317E0,-3.430500031E-1,1.069395065E1
8.280893302E0,6.744000435E0,-3.600000143E-1,1.026600075E1
8.299991871E0,7.050000191E0,-7.110000253E-1,1.125195026E1
8.319090330E0,6.472950459E0,-1.171050072E0,1.308405018E1
8.338189006E0,5.506050110E0,-1.432050109E0,1.231005096E1
8.357287432E0,6.033000469E0,-1.108950019E0,9.588000298E0
8.376386011E0,6.981000423E0,-6.090000272E-1,8.925000191E0
8.395484480E0,5.791050434E0,-5.770500302E-1,1.039305019E1
8.414583179E0,5.116050243E0,-9.820500612E-1,1.036605072E1
8.433681653E0,5.341050148E0,-5.269500017E-1,9.246000290E0
8.452780184E0,5.970000267E0,-7.005000114E-2,8.877000809E0
8.471878667E0,4.840050220E0,-1.729500145E-1,9.883050919E0
8.490977133E0,3.892050266E0,-5.010000467E-1,9.946950912E0
8.510075832E0,4.660950184E0,-1.030500084E-1,8.896050453E0
8.529174329E0,3.922950268E0,3.700500131E-1,9.382050514E0
8.548272786E0,2.901000023E0,1.330500096E-1,1.093095016E1
8.567371500E0,2.629950047E0,2.449500114E-1,1.038300037E1
8.586469993E0,3.021000147E0,1.045050025E0,8.026950836E0
8.605568444E0,2.817000151E0,1.888050079E0,7.567050457E0
8.624666933E0,1.972050071E0,1.753950119E0,1.025595093E1
8.643765635E0,1.737000108E0,1.621950030E0,1.115205097E1
8.662864099E0,1.612950087E0,1.938000083E0,9.421050072E0
8.681962639E0,8.820000291E-1,2.280000210E0,8.451000214E0
8.701061094E0,1.710000038E-1,2.326050043E0,8.803050041E0
8.720159522E0,1.800000109E-2,2.130000114E0,9.433050156E0
8.739258188E0,-4.650000334E-1,2.106000185E0,9.567000389E0
8.758356747E0,-6.559500098E-1,2.338050127E0,9.219000816E0
8.777455228E0,-6.130500436E-1,2.722950220E0,8.614050865E0
8.796553894E0,-8.719500303E-1,3.049050093E0,8.523000717E0
8.815652348E0,-1.240050077E0,3.166050196E0,8.484000206E0
8.834750800E0,-1.627950072E0,3.094050169E0,8.809950829E0
8.853849370E0,-2.020950079E0,2.953050137E0,9.259950638E0
8.872948053E0,-2.715000153E0,2.826000214E0,9.042000771E0
8.892046507E0,-3.048000097E0,2.758950233E0,8.356950760E0
8.911145067E0,-3.490950108E0,2.824050188E0,8.251950264E0
8.930243545E0,-3.769050121E0,2.874000072E0,8.439000130E0
8.949342269E0,-4.156949997E0,2.893050194E0,8.377050400E0
8.968440878E0,-4.075050354E0,3.159000158E0,7.797000408E0
8.987539349E0,-3.951000214E0,3.556950092E0,7.278000355E0
9.006637806E0,-3.883950233E0,3.762000084E0,7.225050449E0
9.025736457E0,-4.543950081E0,3.580050230E0,7.135950565E0
9.044835013E0,-5.056950092E0,3.454050064E0,6.709950447E0
9.063933483E0,-5.362950325E0,3.523050070E0,6.733950138E0
9.083031940E0,-5.695950508E0,3.595050097E0,6.958950520E0
9.102130630E0,-5.622000217E0,3.826950073E0,6.490050316E0
9.121229133E0,-5.461050034E0,4.102050304E0,6.283950329E0
9.140327630E0,-5.430000305E0,4.146000385E0,6.556950092E0
9.159426318E0,-5.677050114E0,4.282050133E0,6.223950386E0
9.178524791E0,-5.812950134E0,4.342050076E0,5.290050030E0
9.197623303E0,-6.205950260E0,4.275000095E0,4.813950062E0
9.216721747E0,-6.381000519E0,4.216950417E0,4.897950172E0
9.235820199E0,-6.406950474E0,4.150050163E0,4.929000378E0
9.254918899E0,-6.309000492E0,4.215000153E0,4.423950195E0
9.274017435E0,-6.213000298E0,4.557000160E0,3.763050079E0
9.293115873E0,-6.280050278E0,4.641000271E0,4.002000332E0
9.312214601E0,-6.240000248E0,4.540950298E0,4.036050320E0
9.331313036E0,-6.412050247E0,4.612050056E0,3.472950220E0
9.350411553E0,-6.979050159E0,4.641000271E0,2.889000177E0
9.369510046E0,-6.831000328E0,4.738950253E0,2.475000143E0
9.388608707E0,-6.462000370E0,4.945050240E0,1.897950053E0
9.407707136E0,-6.400050163E0,5.167950153E0,1.725000024E0
9.426805645E0,-6.430950165E0,5.272950172E0,1.977000117E0
9.445904356E0,-6.453000069E0,5.485950470E0,2.213999987E0
9.465002853E0,-6.474000454E0,5.587050438E0,2.491050005E0
9.484101315E0,-6.613050461E0,5.674950123E0,2.724000216E0
9.503199842E0,-6.793050289E0,5.695050240E0,2.992050171E0
9.522298558E0,-7.006050110E0,5.725950241E0,3.169050217E0
9.541396998E0,-7.281000137E0,5.872050285E0,3.181050062E0
9.560495558E0,-7.078050137E0,6.055950165E0,3.097050190E0
9.579594026E0,-6.394950390E0,6.157050133E0,2.559000015E0
9.598692721E0,-6.189000130E0,6.142050266E0,9.949500561E-1
9.617791185E0,-6.400050163E0,6.238050461E0,-9.739500284E-1
9.636889735E0,-6.252000332E0,6.394050121E0,-1.963050127E0
9.655988204E0,-6.010050297E0,6.493950367E0,-2.200050116E0
9.675086885E0,-5.389950275E0,6.649950504E0,-2.344050169E0
9.694185425E0,-5.064000130E0,6.765000343E0,-2.749050140E0
9.713283883E0,-4.906050205E0,6.837000370E0,-2.698050022E0
9.732382353E0,-4.767000198E0,6.930000305E0,-2.047049999E0
9.751481014E0,-4.963050365E0,6.706950188E0,-1.093950033E0
9.770579569E0,-5.253000259E0,6.391050339E0,-4.050000310E-1
9.789678027E0,-5.326950073E0,6.220950127E0,-3.180000186E-1
9.808776745E0,-4.843950272E0,6.400950432E0,-1.093950033E0
9.827875194E0,-4.803000450E0,6.448950291E0,-1.269000053E0
9.846973745E0,-5.325000286E0,5.869050503E0,4.320000112E-1
9.866072457E0,-5.605050087E0,5.653950214E0,1.869000077E0
9.885170936E0,-5.569050312E0,5.620050430E0,1.689000130E0
9.904269417E0,-5.380050182E0,5.448000431E0,1.972050071E0
9.923367929E0,-4.565999985E0,5.914950371E0,2.464950085E0
9.942466412E0,-4.623000145E0,6.207000256E0,2.472000122E0
9.961565102E0,-5.065950394E0,5.568000317E0,3.720000267E0
9.980663547E0,-5.533050060E0,4.753950119E0,5.554050446E0
9.999762324E0,-5.362950325E0,4.663050175E0,6.250950336E0
1.001886079E1,-4.876950264E0,5.079000473E0,5.062950134E0
1.003795922E1,-4.972950459E0,4.521000385E0,5.377050400E0
1.005705778E1,-5.509050369E0,3.802950144E0,7.179000378E0
1.007615623E1,-5.445000172E0,4.039950371E0,6.294000149E0
1.009525470E1,-4.543950081E0,4.513950348E0,4.620000362E0
1.011435339E1,-3.831000090E0,4.543050289E0,5.460000038E0
1.013345193E1,-3.904950142E0,4.117050171E0,7.539000511E0
1.015255040E1,-3.745050192E0,4.234050274E0,7.741950512E0
1.017164907E1,-3.469050169E0,4.603050232E0,6.241050243E0
1.019074761E1,-2.875950098E0,4.678950310E0,5.707050323E0
1.020984609E1,-2.397000074E0,4.378050327E0,7.054950237E0
1.022894478E1,-2.848950148E0,3.889050245E0,8.884050369E0
1.024804325E1,-3.141000032E0,3.487050056E0,9.387000084E0
1.026714174E1,-2.655000210E0,3.633000135E0,8.410050392E0
1.028624020E1,-2.064000130E0,3.712050200E0,7.909950256E0
1.030533889E1,-1.783950090E0,3.481950283E0,9.475950241E0
1.032443734E1,-2.071050167E0,3.006000042E0,1.123305035E1
1.034353586E1,-2.077950001E0,2.908050060E0,1.031100082E1
1.036263432E1,-1.165950060E0,3.331050158E0,7.411950588E0
1.038173305E1,-4.995000362E-2,3.387000084E0,7.318050385E0
1.040083154E1,2.700000107E-1,3.006000042E0,1.015095043E1
1.041993007E1,-5.505000427E-2,2.425950050E0,1.152300072E1
1.043902855E1,3.010500073E-1,2.287950039E0,1.018200016E1
1.045812720E1,5.860500336E-1,2.509950161E0,8.848050117E0
1.047722564E1,1.369050026E0,2.295000076E0,9.841950417E0
1.049632420E1,1.263000011E0,2.098050117E0,1.125195026E1
1.051542269E1,1.306050062E0,2.094000101E0,1.078305054E1
1.053452139E1,1.873950124E0,2.287950039E0,9.705000877E0
1.055361994E1,2.692950010E0,2.416950226E0,8.869950294E0
1.057271841E1,3.070950031E0,2.137050152E0,9.112050056E0
1.059181689E1,3.112050056E0,1.696050048E0,1.055805016E1
1.061091557E1,3.040050030E0,1.294050097E0,1.131900024E1
1.063001407E1,2.968050241E0,1.330050111E0,1.121895027E1
1.064911253E1,3.576000214E0,1.533000112E0,1.063200092E1
1.066821122E1,4.207950115E0,1.681950092E0,9.544950485E0
1.068730972E1,4.527000427E0,1.603050113E0,9.115950584E0
1.070640824E1,4.567049980E0,1.390050054E0,9.697950363E0
1.072550692E1,4.564949989E0,1.015950084E0,9.937950134E0
1.074460538E1,4.609950066E0,5.970000029E-1,9.664950371E0
1.076370385E1,5.014950275E0,2.880000174E-1,9.430050850E0
1.078280240E1,5.569950104E0,3.190500140E-1,9.781949997E0
1.080190082E1,5.689950466E0,2.160000056E-1,9.981000900E0
1.082099947E1,5.295000076E0,-5.100000277E-2,9.847050667E0
1.084009792E1,5.283000469E0,5.805000290E-2,1.022295094E1
1.085919646E1,5.247000217E0,-1.005000062E-2,1.057200050E1
1.087829515E1,5.083950043E0,-1.579500139E-1,1.024200058E1
1.089739360E1,5.532000065E0,-5.295000225E-2,9.460950851E0
1.091649205E1,5.997000217E0,2.209500074E-1,8.476950645E0
1.093559061E1,6.238050461E0,2.839500010E-1,7.704000473E0
1.095468909E1,6.646050453E0,2.119500041E-1,7.572000504E0
1.097378780E1,6.784050465E0,8.205000311E-2,7.552950382E0
1.099288625E1,6.958950520E0,-4.305000231E-2,8.068050385E0
1.101198474E1,7.191000462E0,-2.490000129E-1,8.560950279E0
1.103108345E1,7.144050121E0,-4.699500203E-1,8.803050041E0
1.105018192E1,7.078950405E0,-6.829500198E-1,8.808000565E0
1.106928049E1,7.225050449E0,-8.290500641E-1,8.761950493E0
1.108837895E1,7.246050358E0,-7.909500599E-1,8.944050789E0
1.110747765E1,6.981000423E0,-8.050500154E-1,9.076050758E0
1.112657610E1,6.838950157E0,-8.140500188E-1,9.045000076E0
1.114567464E1,6.826950550E0,-7.159500122E-1,8.833950043E0
1.116477310E1,6.856050491E0,-6.850500107E-1,8.688000679E0
1.118387154E1,6.928050518E0,-7.189500332E-1,8.908050537E0
1.120297022E1,6.906000137E0,-8.530500531E-1,9.516000748E0
1.122206873E1,6.739050388E0,-1.055999994E0,1.008600044E1
1.124116722E1,6.564000130E0,-1.240950108E0,1.029195023E1
1.126026591E1,6.439950466E0,-1.381950021E0,1.028505039E1
1.127936439E1,6.222000122E0,-1.554000020E0,1.037805080E1
1.129846289E1,6.270000458E0,-1.602000117E0,1.056705093E1
1.131756139E1,6.279000282E0,-1.638000131E0,1.058205032E1
1.133666005E1,6.136050224E0,-1.576050043E0,1.054800034E1
1.135575851E1,6.124050140E0,-1.432050109E0,1.063005066E1
1.137485703E1,5.913000107E0,-1.186050057E0,1.078095055E1
1.139395551E1,6.270000458E0,-1.135050058E0,1.050495052E1
1.141305422E1,6.424950123E0,-1.126049995E0,1.044795036E1
1.143215270E1,5.748000145E0,-1.389000058E0,1.082805061E1
1.145125119E1,5.197050095E0,-1.585050106E0,1.065105057E1
1.147034966E1,5.520000458E0,-1.375050068E0,1.025400066E1
1.148944840E1,5.467950344E0,-1.066050053E0,1.038495064E1
1.150854684E1,5.077050209E0,-9.100500345E-1,1.082100010E1
1.152764537E1,5.317050457E0,-9.030000567E-1,1.100805092E1
1.154674384E1,4.965000153E0,-6.349500418E-1,1.048095036E1
1.156584251E1,4.512000084E0,-2.350500077E-1,1.010100079E1
1.158494108E1,4.258049965E0,-5.100000277E-2,9.837000847E0
1.160403955E1,4.084050179E0,1.849500090E-1,9.526050568E0
1.162313799E1,3.865950108E0,5.590500236E-1,9.648000717E0
1.164223666E1,3.468000174E0,6.139500141E-1,1.025895023E1
1.166133512E1,2.697000027E0,7.050000429E-1,1.061100006E1
1.168043370E1,2.431950092E0,8.290500641E-1,1.004100037E1
1.169953240E1,1.993050098E0,1.059000015E0,9.531000137E0
1.171863084E1,1.737000108E0,1.330050111E0,9.535050392E0
1.173772934E1,1.404000044E0,1.500000119E0,9.603000641E0
1.175682788E1,8.899500370E-1,1.533000112E0,9.556950569E0
1.177592632E1,4.510500133E-1,1.713000059E0,9.202950478E0
1.179502504E1,1.000500023E-1,1.773000121E0,8.890950203E0
1.181412348E1,-5.959500074E-1,1.708050132E0,8.946000099E0
1.183322202E1,-1.314000010E0,1.581000090E0,9.181050301E0
1.185232049E1,-1.309950113E0,1.693950057E0,8.965950012E0
1.187141920E1,-1.405050039E0,2.034000158E0,8.227950096E0
1.189051763E1,-1.993950129E0,2.115000010E0,8.194950104E0
1.190961616E1,-2.554950237E0,1.978950143E0,8.986950874E0
1.192871460E1,-2.931000233E0,1.960050106E0,8.946000099E0
1.194781329E1,-3.325950146E0,2.009999990E0,8.467950821E0
1.196691185E1,-3.760950089E0,2.011950016E0,8.414999962E0
1.198601029E1,-4.156949997E0,2.041050196E0,8.305050850E0
1.200510877E1,-4.168050289E0,2.211000204E0,7.900050163E0
1.202420745E1,-4.279050350E0,2.448000193E0,7.639050484E0
1.204330595E1,-4.681050301E0,2.568000078E0,7.491000175E0
1.206240441E1,-4.924950123E0,2.683050156E0,7.150950432E0
1.208150296E1,-4.936950207E0,2.971950054E0,6.892050266E0
1.210060166E1,-5.152950287E0,3.151950121E0,6.628950119E0
1.211970016E1,-5.440050125E0,3.171000242E0,6.625950336E0
1.213879872E1,-5.389950275E0,3.360000134E0,6.709950447E0
1.215789720E1,-5.409000397E0,3.585000277E0,6.624000549E0
1.217699588E1,-5.425050259E0,3.937050104E0,6.021000385E0
1.219609432E1,-5.457000256E0,4.207950115E0,5.166000366E0
1.221519290E1,-5.599950314E0,4.483050346E0,5.203950405E0
1.223429136E1,-5.884950161E0,4.459050179E0,5.451000214E0
1.225339005E1,-6.232050419E0,4.330049992E0,5.452950478E0
1.227248851E1,-6.192000389E0,4.483050346E0,4.978950024E0
1.229158706E1,-5.976000309E0,4.986000061E0,3.934950113E0
1.231068547E1,-5.683950424E0,5.482050419E0,3.279000044E0
1.232978415E1,-5.500050068E0,5.661000252E0,3.234000206E0
1.234888261E1,-5.752950191E0,5.512950420E0,3.676950216E0
1.236798106E1,-5.824950218E0,5.307000160E0,3.901950121E0
1.238707961E1,-5.907000065E0,5.494050026E0,3.259950161E0
1.240617831E1,-6.199050426E0,5.623050213E0,2.436000109E0
1.242527677E1,-6.690000534E0,5.461950302E0,2.094000101E0
1.244437527E1,-6.787950516E0,5.316000462E0,1.966950059E0
1.246347374E1,-6.546000481E0,5.484000206E0,2.014950037E0
1.248257219E1,-6.477000237E0,5.641950130E0,2.037000179E0
1.250167091E1,-6.514950275E0,5.746950150E0,2.251950026E0
1.252076937E1,-6.481050491E0,5.740050316E0,2.326050043E0
1.253986794E1,-6.331050396E0,5.862000465E0,2.056050062E0
1.255896661E1,-6.450000286E0,6.027000427E0,1.761000037E0
1.257806506E1,-6.841050148E0,6.151950359E0,1.998000145E0
1.259716352E1,-7.057950497E0,6.235950470E0,2.479950190E0
1.261626204E1,-7.267050266E0,5.962950230E0,2.523000002E0
1.263536048E1,-7.480050564E0,5.790000439E0,2.332950115E0
1.265445919E1,-7.165950298E0,5.934000492E0,1.897950053E0
1.267355767E1,-6.735000134E0,6.195000172E0,9.280500412E-1
1.269265619E1,-6.259050369E0,6.484950542E0,-1.800000072E-1
1.271175463E1,-5.679000378E0,6.766950130E0,-1.051050067E0
1.273085330E1,-5.241000175E0,6.906000137E0,-1.597050071E0
1.274995177E1,-4.872000217E0,7.026000500E0,-2.016000032E0
1.276905027E1,-4.669050217E0,6.798000336E0,-2.188050032E0
1.278814877E1,-4.815000057E0,6.742950439E0,-2.017950058E0
1.280724750E1,-4.777050018E0,7.170000553E0,-1.918050051E0
1.282634598E1,-4.546950340E0,7.021050453E0,-1.711950064E0
1.284544454E1,-4.525050163E0,6.331950188E0,-7.950000167E-1
1.286454300E1,-4.633050442E0,5.722950459E0,-7.395000011E-2
1.288364167E1,-4.480050087E0,6.055950165E0,-1.030050039E0
1.290274013E1,-4.105950356E0,6.199950218E0,-1.654050112E0
1.292183867E1,-3.982050180E0,5.793000221E0,-7.159500122E-1
1.294093715E1,-4.108950138E0,5.761950493E0,4.849500358E-1
1.296003583E1,-4.414950371E0,5.992050171E0,9.495000541E-2
1.297913433E1,-4.602000237E0,5.841000080E0,6.550500393E-1
1.299823287E1,-4.501049995E0,4.777950287E0,3.013050079E0
1.301733132E1,-4.783950329E0,4.371000290E0,5.314050198E0
1.303643000E1,-4.780950069E0,4.729950428E0,4.372950077E0
1.305552844E1,-4.759950161E0,4.750950336E0,4.203000069E0
1.307462697E1,-5.016000271E0,3.978000164E0,6.199950218E0
1.309372543E1,-5.289000034E0,3.501000166E0,7.771050453E0
1.311282388E1,-4.932000160E0,4.192950249E0,6.277050495E0
1.313192256E1,-4.312050343E0,4.804050446E0,5.010000229E0
1.315102111E1,-3.952950239E0,4.323000431E0,7.029000282E0
1.317011960E1,-4.570950031E0,3.480000257E0,9.679050446E0
1.318921827E1,-5.191050053E0,3.399000168E0,9.454050064E0
1.320831670E1,-5.088000298E0,3.637950182E0,8.029050827E0
1.322741525E1,-4.567950249E0,3.667050123E0,8.721000671E0
1.324651374E1,-4.219050407E0,3.460950136E0,1.021305084E1
1.326561220E1,-3.607950211E0,3.736050129E0,9.415950775E0
1.328471089E1,-2.947050095E0,4.098000050E0,7.678050518E0
1.330380933E1,-2.598000050E0,3.846000195E0,8.829000473E0
1.332290789E1,-3.061950207E0,3.159000158E0,1.144905090E1
1.334200660E1,-3.268050194E0,2.905050039E0,1.140795040E1
1.336110505E1,-3.048000097E0,3.169050217E0,8.902950287E0
1.338020350E1,-2.299050093E0,3.303000212E0,8.218950272E0
1.339930205E1,-1.780950069E0,3.154050112E0,9.817950249E0
1.341840053E1,-1.650000095E0,2.983950138E0,1.055295086E1
1.343749927E1,-1.570950031E0,2.982000113E0,9.576000214E0
1.345659775E1,-1.462950110E0,3.031950235E0,8.752950668E0
1.347569627E1,-1.128000021E0,2.709000111E0,9.468000412E0
1.349479497E1,-9.790500402E-1,2.443050146E0,1.068705082E1
1.351389347E1,-1.027050018E0,2.221050024E0,1.110405064E1
1.353299195E1,-9.100500345E-1,2.130000114E0,1.042395020E1
1.355209051E1,-6.010500193E-1,2.053050041E0,9.871050835E0
1.357118898E1,-2.250000089E-1,2.005050182E0,9.847050667E0
1.359028749E1,2.650500238E-1,2.127000093E0,9.978000641E0
1.360938616E1,5.640000105E-1,2.042999983E0,9.532950401E0
1.362848468E1,5.160000324E-1,1.881000042E0,9.937950134E0
1.364758312E1,4.009500146E-1,1.545000076E0,1.048095036E1
1.366668180E1,5.089499950E-1,1.387050033E0,1.017495060E1
1.368578022E1,1.122000098E0,1.435050011E0,8.985000610E0
1.370487875E1,1.543050051E0,1.396950126E0,8.844000816E0
1.372397720E1,1.936050057E0,1.234050035E0,1.010100079E1
1.374307562E1,1.969050050E0,1.075950027E0,1.043595028E1
1.376217432E1,2.062950134E0,1.153050065E0,9.604950905E0
1.378127284E1,2.827050209E0,1.366050124E0,8.616000175E0
1.380037127E1,3.619050264E0,1.416000009E0,8.237999916E0
1.381946972E1,3.865950108E0,1.095000029E0,9.205050468E0
1.383856842E1,3.745950222E0,8.509500623E-1,1.054305077E1
1.385766697E1,3.571050167E0,8.410500288E-1,1.077795029E1
1.387676544E1,3.954000235E0,9.870000482E-1,1.001700020E1
1.389586411E1,4.431000233E0,1.117050052E0,9.235950470E0
1.391496258E1,4.414050102E0,1.027950048E0,9.130949974E0
1.393406112E1,4.419000149E0,8.389500380E-1,9.327000618E0
1.395315958E1,4.246050358E0,7.770000100E-1,9.804000854E0
1.397225807E1,4.408950329E0,7.410000563E-1,9.978000641E0
1.399135675E1,4.950000286E0,6.810000539E-1,9.676950455E0
1.401045520E1,5.673000336E0,6.670500040E-1,8.958000183E0
1.402955372E1,5.982000351E0,6.670500040E-1,8.866950035E0
1.404865240E1,5.656950474E0,4.579500258E-1,9.835050583E0
1.406775087E1,5.458050251E0,2.620500028E-1,1.013895035E1
1.408684939E1,5.605950356E0,2.670000196E-1,9.439949989E0
1.410594788E1,6.052050114E0,3.120000064E-1,8.527050018E0
1.412504633E1,6.385050297E0,3.630000055E-1,8.164050102E0
1.414414505E1,6.528000355E0,4.200000167E-1,8.086950302E0
1.416324356E1,6.856050491E0,4.969500303E-1,8.137050629E0
1.418234202E1,6.933000565E0,7.290000319E-1,8.017050743E0
1.420144071E1,7.053000450E0,8.010000587E-1,7.609950542E0
1.422053917E1,7.065000534E0,7.789500356E-1,7.564950466E0
1.423963766E1,6.978000164E0,6.589500308E-1,8.062950134E0
1.425873624E1,6.781950474E0,4.939500093E-1,8.154000282E0
1.427783494E1,6.784050465E0,4.459500313E-1,7.881000519E0
1.429693337E1,6.916050434E0,5.059500337E-1,7.476000309E0
1.431603193E1,7.135950565E0,5.539500117E-1,7.122000217E0
1.433513041E1,7.255950451E0,4.459500313E-1,7.227000237E0
1.435422886E1,7.428000450E0,2.689500153E-1,8.146950722E0
1.437332754E1,7.428000450E0,1.305000018E-2,9.406050682E0
1.439242610E1,6.970950127E0,-1.540500075E-1,9.873000145E0
1.441152457E1,6.837000370E0,-7.200000435E-2,9.643050194E0
1.443062326E1,7.144050121E0,1.489500105E-1,9.310050011E0
1.444972169E1,7.179000378E0,3.840000033E-1,9.073050499E0
1.446882021E1,7.150950432E0,4.939500093E-1,9.151950836E0
1.448791864E1,7.009050369E0,3.889500201E-1,9.676950455E0
1.450701730E1,6.744000435E0,1.710000038E-1,9.993000031E0
1.452611574E1,6.444000244E0,-1.695000008E-2,1.023705006E1
1.454521431E1,6.475950241E0,-1.390500069E-1,1.058700085E1
1.456431275E1,6.655050278E0,-1.920000017E-1,1.060605049E1
1.458341145E1,6.793950558E0,-1.750500053E-1,1.047900009E1
1.460250993E1,6.753000259E0,-1.819500029E-1,1.023495007E1
1.462160846E1,6.508950233E0,-2.350500077E-1,9.985950470E0
1.464070696E1,6.568950176E0,-2.230500132E-1,1.001400089E1
1.465980563E1,6.657000542E0,-2.639999986E-1,1.004505062E1
1.467890408E1,6.274050236E0,-3.720000088E-1,1.022700024E1
1.469800262E1,5.962950230E0,-3.240000010E-1,1.035000038E1
1.471710136E1,5.902950287E0,-3.000000119E-1,1.020600033E1
1.473619984E1,5.472000122E0,-1.249500066E-1,1.002900028E1
1.475529832E1,5.049000263E0,-1.200000010E-2,9.973950386E0
1.477439684E1,5.271000385E0,3.049500287E-1,9.763050079E0
1.479349548E1,5.299950123E0,6.859500408E-1,9.720000267E0
1.481259393E1,4.609950066E0,7.909500599E-1,1.034205055E1
1.483169235E1,3.841950178E0,7.960500121E-1,1.079700089E1
1.485079092E1,3.847050190E0,8.770500422E-1,1.008105087E1
1.486988937E1,3.519000053E0,1.030950069E0,9.496950150E0
1.488898806E1,3.088050127E0,1.114050031E0,9.721950531E0
1.490808660E1,2.668950081E0,1.201050043E0,9.603000641E0
1.492718508E1,2.263950109E0,1.384950042E0,9.313050270E0
1.494628376E1,1.989000082E0,1.620000124E0,9.780000687E0
1.496538221E1,1.809000134E0,1.765950084E0,1.026600075E1
1.498448075E1,1.051950097E0,1.696050048E0,9.957000732E0
1.500357923E1,4.750500321E-1,1.773000121E0,9.178950310E0
1.502267797E1,5.160000324E-1,2.176950216E0,8.866950035E0
1.504177648E1,1.549500078E-1,2.398050070E0,8.803050041E0
1.506087505E1,-1.800000072E-1,2.376000166E0,9.070950508E0
1.507997372E1,-5.149500370E-1,2.461950064E0,9.399000168E0
1.509907216E1,-9.790500402E-1,2.557950020E0,8.920050621E0
1.511817062E1,-1.213950038E0,2.644050121E0,8.176050186E0
1.513726922E1,-1.369950056E0,2.896050215E0,7.930950165E0
1.515636767E1,-1.683000088E0,3.043950081E0,7.962000370E0
1.517546635E1,-1.987050056E0,3.006000042E0,8.872050285E0
1.519456486E1,-2.404050112E0,3.049050093E0,9.082950592E0
1.521366334E1,-2.787000179E0,3.139950037E0,8.523000717E0
1.523276177E1,-2.875950098E0,3.499050140E0,7.383000374E0
1.525186042E1,-2.875950098E0,3.943950176E0,6.907050133E0
1.527095887E1,-3.064950228E0,4.078050137E0,7.279950142E0
1.529005740E1,-3.369000196E0,4.102050304E0,7.516950130E0
1.530915611E1,-3.466950178E0,4.327050209E0,7.366050243E0
1.532825459E1,-3.781050205E0,4.336950302E0,7.456950188E0
1.534735313E1,-4.185000420E0,4.392000198E0,7.369050503E0
1.536645156E1,-4.537050247E0,4.390050411E0,7.054950237E0
1.538555023E1,-4.480050087E0,4.585950375E0,6.183000088E0
1.540464873E1,-4.602000237E0,4.960050106E0,5.467950344E0
1.542374728E1,-4.723950386E0,5.131950378E0,5.815050125E0
1.544284574E1,-4.827000141E0,5.221050262E0,5.749950409E0
1.546194445E1,-5.088000298E0,5.236950397E0,5.331000328E0
1.548104291E1,-5.229000092E0,5.431050301E0,5.034000397E0
1.550014145E1,-5.152950287E0,5.647050381E0,4.978950024E0
1.551923990E1,-5.296050072E0,5.719050407E0,4.861950397E0
1.553833858E1,-5.533050060E0,5.476950169E0,5.197050095E0
1.555743710E1,-5.718000412E0,5.386050224E0,4.948050022E0
1.557653558E1,-5.920950413E0,5.593950272E0,4.156050205E0
1.559563427E1,-5.988000393E0,5.758950233E0,3.816000223E0
1.561473275E1,-5.887950420E0,5.874000072E0,3.868050098E0
1.563383120E1,-5.703000069E0,6.006000519E0,3.832050085E0
1.565292974E1,-5.868000507E0,6.130050182E0,3.430050135E0
1.567202841E1,-6.036000252E0,6.130050182E0,3.358050108E0
1.569112690E1,-6.061950207E0,6.049050331E0,3.322050095E0
1.571022536E1,-6.223050117E0,6.054000378E0,3.034950256E0
1.572932392E1,-6.297000408E0,5.992050171E0,2.487000227E0
1.574842260E1,-6.316050529E0,6.007950306E0,1.891050100E0
1.576752108E1,-6.285000324E0,6.139950275E0,1.471950054E0
1.578661960E1,-6.208050251E0,6.172950268E0,1.456950068E0
1.580571804E1,-6.477000237E0,5.958000183E0,1.548000097E0
1.582481675E1,-6.951000214E0,5.671050072E0,1.608000040E0
1.584391525E1,-7.045950413E0,5.527050495E0,1.366050124E0
1.586301373E1,-6.799950123E0,5.436000347E0,6.960000396E-1
1.588211217E1,-6.462000370E0,5.541000366E0,-6.130500436E-1
1.590121086E1,-5.974050522E0,5.862000465E0,-1.618950129E0
1.592030941E1,-5.653050423E0,6.121050358E0,-1.966050148E0
1.593940787E1,-5.466000080E0,6.360000134E0,-2.260050058E0
1.595850652E1,-5.080950260E0,6.592050076E0,-2.356050014E0
1.597760498E1,-4.647000313E0,7.051950455E0,-2.370000124E0
1.599670343E1,-4.426949978E0,7.480950356E0,-2.128050089E0
1.601580200E1,-4.531949997E0,7.555050373E0,-1.053000093E0
1.603490072E1,-5.044950008E0,7.119000435E0,3.919500113E-1
1.605399917E1,-5.722050190E0,6.469950199E0,1.311000109E0
1.607309767E1,-6.187050343E0,5.944050312E0,1.060050011E0
1.609219642E1,-6.129000187E0,5.995950222E0,9.000000358E-2
1.611129491E1,-5.590950489E0,6.106050491E0,-6.199500561E-1
1.613039339E1,-5.715000153E0,6.171000481E0,-5.119500160E-1
1.614949188E1,-5.821050167E0,6.013050079E0,5.070000291E-1
1.616859034E1,-5.650950432E0,5.974950314E0,1.720950127E0
1.618768906E1,-5.497050285E0,6.073050499E0,2.335950136E0
1.620678763E1,-5.607000351E0,5.818950176E0,2.973000050E0
1.622588607E1,-5.871000290E0,5.721000195E0,3.816000223E0
1.624498453E1,-5.875950336E0,5.893050194E0,3.679050207E0
1.626408319E1,-5.425050259E0,5.889000416E0,4.156050205E0
1.628318173E1,-5.392050266E0,5.544000149E0,5.166000366E0
1.630228021E1,-5.779950142E0,5.209050179E0,5.881950378E0
1.632137893E1,-5.998050213E0,5.055000305E0,5.836050510E0
1.634047739E1,-5.694000244E0,5.053050041E0,5.046000004E0
1.635957592E1,-5.305950165E0,4.905000210E0,4.984050274E0
1.637867439E1,-4.875000000E0,4.770000458E0,5.062950134E0
1.639777309E1,-4.437000275E0,4.894950390E0,4.600950241E0
1.641687155E1,-4.438950062E0,4.735050201E0,4.801950455E0
1.643597009E1,-4.492050171E0,4.300950050E0,6.076050282E0
1.645506858E1,-4.279050350E0,4.318050385E0,6.106950283E0
1.647416724E1,-3.856950283E0,4.464000225E0,5.155950069E0
1.649326578E1,-3.373950243E0,4.414050102E0,5.926950455E0
1.651236425E1,-2.964000225E0,4.296000004E0,7.132050514E0
1.653146270E1,-2.713050127E0,4.294050217E0,6.952050209E0
1.655056137E1,-2.569050074E0,4.162050247E0,6.646050453E0
1.656965983E1,-2.623950243E0,3.765000105E0,7.500000477E0
1.658875837E1,-2.464050055E0,3.454050064E0,8.685000420E0
1.660785683E1,-2.224050045E0,3.466050148E0,8.733000755E0
1.662695554E1,-1.611000061E0,3.511050224E0,7.933950424E0
1.664605408E1,-9.120000601E-1,3.430050135E0,7.828050137E0
1.666515254E1,-2.920500040E-1,3.283950090E0,8.785950661E0
1.668425125E1,-4.669500291E-1,2.941050053E0,1.027800083E1
1.670334976E1,-1.080000043E0,2.505000114E0,1.095300007E1
1.672244830E1,-7.159500122E-1,2.557950020E0,9.837000847E0
1.674154676E1,4.350000322E-1,2.778000116E0,8.809950829E0
1.676064545E1,1.009050012E0,2.553000212E0,9.670050621E0
1.677974391E1,6.070500016E-1,2.137050152E0,1.108695030E1
1.679884243E1,4.560000300E-1,1.756050110E0,1.119705009E1
1.681794112E1,1.017000079E0,1.720050097E0,9.825000763E0
1.683703955E1,2.211000204E0,1.948050141E0,8.434050560E0
1.685613809E1,3.255000114E0,2.113049984E0,8.164050102E0
1.687523653E1,3.403950214E0,1.881000042E0,9.610050201E0
1.689433498E1,3.327000141E0,1.519050121E0,1.087095070E1
1.691343362E1,3.274050236E0,1.336950064E0,1.100295067E1
1.693253211E1,3.696000099E0,1.330050111E0,1.014105034E1
1.695163057E1,4.090950012E0,1.270050049E0,9.811050415E0
1.697072904E1,4.347000122E0,1.198050022E0,1.041405010E1
1.698982772E1,4.522050381E0,1.155000091E0,1.077300072E1
1.700892625E1,4.703999996E0,1.162050009E0,1.035900021E1
1.702802471E1,4.914000034E0,1.047000051E0,9.583050728E0
1.704712340E1,5.428950310E0,6.690000296E-1,9.195000648E0
1.706622189E1,5.274000168E0,1.900500059E-1,9.841950417E0
1.708532042E1,5.214000225E0,-2.350500077E-1,1.078500080E1
1.710441889E1,5.347950459E0,-3.379500210E-1,1.066605091E1
1.712351759E1,5.736000061E0,-3.040500283E-1,1.007205009E1
1.714261608E1,6.046950340E0,-2.209500074E-1,9.853950500E0
1.716171463E1,6.361050129E0,-1.780500114E-1,9.943050385E0
1.718081308E1,6.801000118E0,1.095000096E-2,9.310050011E0
1.719991176E1,6.709950447E0,-7.200000435E-2,8.452950478E0
1.721901021E1,6.516000271E0,-1.969500035E-1,8.377050400E0
1.723810878E1,6.472950459E0,-4.099500179E-1,8.640000343E0
1.725720726E1,6.576000214E0,-4.960500300E-1,8.671050072E0
1.727630597E1,6.945000172E0,-4.459500313E-1,8.544000626E0
1.729540443E1,7.102950573E0,-3.550500274E-1,8.383950233E0
1.731450296E1,7.065000534E0,-2.970000207E-1,8.044050217E0
1.733360164E1,7.087950230E0,-2.130000144E-1,7.527000427E0
1.735270010E1,7.251000404E0,-1.990500093E-1,7.258950233E0
1.737179854E1,7.414050579E0,-2.470500171E-1,7.297050476E0
1.739089709E1,7.504950523E0,-1.560000032E-1,7.572000504E0
1.740999578E1,7.969950199E0,-2.160000056E-1,7.906950474E0
1.742909424E1,8.107950211E0,-3.379500210E-1,8.377050400E0
1.744819273E1,7.785000324E0,-3.480000198E-1,8.725950241E0
1.746729122E1,7.960050583E0,-3.450000286E-1,8.616000175E0
1.748638966E1,8.254050255E0,-3.360000253E-1,8.346000671E0
1.750548840E1,8.086950302E0,-4.150500298E-1,8.386050224E0
1.752458687E1,7.777950287E0,-5.580000281E-1,8.869950294E0
1.754368532E1,7.903050423E0,-7.399500608E-1,9.490050316E0
1.756278402E1,7.996050358E0,-9.270000458E-1,9.964050293E0
1.758188250E1,7.488000393E0,-1.054050088E0,1.002405071E1
1.760098098E1,7.311000347E0,-1.108950019E0,9.828000069E0
1.762007954E1,7.302000523E0,-1.039950013E0,9.954000473E0
1.763917827E1,7.147950172E0,-1.048950076E0,1.030200005E1
1.765827674E1,7.065000534E0,-1.135050058E0,1.028505039E1
1.767737527E1,7.419000149E0,-1.020000100E0,1.017195034E1
1.769647376E1,7.867050171E0,-9.870000482E-1,1.003305054E1
1.771557245E1,7.543050289E0,-1.183050036E0,9.873000145E0
1.773467103E1,6.655050278E0,-1.231050014E0,1.005300045E1
1.775376951E1,6.913950443E0,-1.219050050E0,1.000995064E1
1.777286799E1,7.054950237E0,-1.018050075E0,9.847050667E0
1.779196666E1,7.041000366E0,-9.319500327E-1,1.022505093E1
1.781106512E1,6.291000366E0,-8.550000191E-1,1.059105015E1
1.783016362E1,6.067950249E0,-9.100500345E-1,1.001700020E1
1.784926228E1,5.863050461E0,-7.069500089E-1,9.126000404E0
1.786836072E1,5.808000088E0,-4.650000334E-1,9.070950508E0
1.788745921E1,5.223000050E0,-3.930000067E-1,1.001700020E1
1.790655774E1,4.491000175E0,-3.880500197E-1,1.026795006E1
1.792565620E1,4.515000343E0,-1.560000032E-1,9.816000938E0
1.794475489E1,4.394999981E0,1.519500017E-1,9.282000542E0
1.796385343E1,3.327000141E0,2.599500120E-1,9.265050888E0
1.798295190E1,2.592000008E0,2.839500010E-1,9.625950813E0
1.800205037E1,2.295000076E0,4.200000167E-1,9.265050888E0
1.802114906E1,2.302050114E0,8.410500288E-1,8.463000298E0
1.804024750E1,2.094000101E0,1.155000091E0,8.926950455E0
1.805934607E1,1.447950125E0,1.336950064E0,1.018905067E1
1.807844479E1,7.909500599E-1,1.552950025E0,1.036395073E1
1.809754324E1,7.270500064E-1,1.818000078E0,8.896050453E0
1.811664168E1,1.909500062E-1,2.218050003E0,7.837950230E0
1.813574022E1,-1.720500141E-1,2.407050133E0,8.017050743E0
1.815483869E1,-7.519500256E-1,2.259000063E0,8.536950111E0
1.817393736E1,-1.273950100E0,2.212949991E0,8.761950493E0
1.819303587E1,-1.425000072E0,2.340000153E0,8.797950745E0
1.821213431E1,-1.540050030E0,2.557950020E0,8.535000801E0
1.823123275E1,-2.002050161E0,2.649000168E0,8.179950714E0
1.825033144E1,-2.401050091E0,2.632050037E0,7.893000603E0
1.826942994E1,-2.718000174E0,2.697000027E0,7.954950333E0
1.828852845E1,-2.988000154E0,2.841000080E0,8.230950356E0
1.830762711E1,-3.187050104E0,2.877000093E0,8.604000092E0
1.832672560E1,-3.619950056E0,2.908050060E0,8.329050064E0
1.834582404E1,-4.039050102E0,2.914950132E0,7.978950500E0
1.836492258E1,-4.101000309E0,3.169050217E0,7.531050205E0
1.838402124E1,-4.201950073E0,3.391050100E0,7.630050182E0
1.840311975E1,-4.434000015E0,3.475050211E0,7.768050194E0
1.842221830E1,-4.654950142E0,3.568050146E0,7.894950390E0
1.844131678E1,-4.912950039E0,3.813000202E0,7.687050343E0
1.846041522E1,-5.133000374E0,4.081050396E0,7.098000526E0
1.847951394E1,-5.077950478E0,4.408950329E0,6.229050159E0
1.849861242E1,-4.803000450E0,4.854000092E0,5.460000038E0
1.851771096E1,-4.707000256E0,5.002950191E0,5.119950294E0
1.853680968E1,-5.200050354E0,4.813950062E0,4.972050190E0
1.855590813E1,-5.619000435E0,4.699050426E0,5.017050266E0
1.857500665E1,-5.823000431E0,4.756050110E0,4.801950455E0
1.859410511E1,-5.895000458E0,4.806000233E0,4.522050381E0
1.861320384E1,-5.638950348E0,4.900050163E0,4.306050301E0
1.863230229E1,-5.662950039E0,5.065050125E0,3.826950073E0
1.865140075E1,-5.755950451E0,5.251950264E0,3.471000195E0
1.867049927E1,-5.875950336E0,5.173050404E0,3.420000076E0
1.868959780E1,-6.196050167E0,5.107950211E0,3.283950090E0
1.870869645E1,-6.268050194E0,5.158050060E0,3.400950193E0
1.872779496E1,-6.340050220E0,5.436000347E0,3.090000153E0
1.874689343E1,-6.547950268E0,5.625000477E0,2.829000235E0
1.876599190E1,-6.655950546E0,5.764050484E0,2.893950224E0
1.878509062E1,-6.757050514E0,5.790000439E0,2.950950146E0
1.880418916E1,-7.060950279E0,5.673000336E0,3.079950094E0
1.882328761E1,-7.321950436E0,5.452950478E0,3.040050030E0
1.884238606E1,-7.582950592E0,5.332950115E0,2.733000040E0
1.886148476E1,-7.566000462E0,5.304000378E0,2.131950140E0
1.888058324E1,-7.207050323E0,5.460000038E0,1.158000112E0
1.889968176E1,-6.376050472E0,5.814000130E0,-1.560000032E-1
1.891878041E1,-5.713050365E0,6.114000320E0,-1.243050098E0
1.893787889E1,-5.572050095E0,6.304950237E0,-1.582950115E0
1.895697746E1,-5.430000305E0,6.283950329E0,-1.161000013E0
1.897607592E1,-5.458950043E0,6.303000450E0,-5.670000315E-1
1.899517436E1,-5.703000069E0,6.298050404E0,-8.400000334E-1
1.901427301E1,-5.694000244E0,6.255000114E0,-1.068000078E0
1.903337160E1,-5.658000469E0,6.115950108E0,-4.600500166E-1
1.905247007E1,-5.755950451E0,6.030000210E0,1.740000099E-1
1.907156878E1,-5.782050133E0,5.968050480E0,4.560000300E-1
1.909066722E1,-5.785050392E0,5.956050396E0,5.640000105E-1
1.910976568E1,-5.773050308E0,5.914950371E0,3.319500089E-1
1.912886426E1,-5.593050480E0,6.067950249E0,-8.400000632E-2
1.914796270E1,-5.196000099E0,6.298050404E0,-6.130500436E-1
1.916706137E1,-5.008950233E0,6.292950153E0,-8.040000200E-1
1.918615989E1,-4.888950348E0,5.956050396E0,-4.500000179E-1
1.920525836E1,-5.101950169E0,5.680050373E0,1.500000060E-1
1.922435683E1,-5.160000324E0,5.710950375E0,-1.339500099E-1
1.924345553E1,-5.035050392E0,5.572950363E0,4.060500264E-1
1.926255394E1,-4.729050159E0,4.942950249E0,2.400000095E0
1.928165247E1,-4.834050179E0,4.567049980E0,4.315950394E0
1.930075112E1,-4.959000111E0,4.627050400E0,4.231950283E0
1.931984959E1,-4.987050056E0,4.588050365E0,4.444950104E0
1.933894805E1,-4.855950356E0,4.336950302E0,5.908050060E0
1.935804655E1,-5.095050335E0,3.973050117E0,7.701000214E0
1.937714506E1,-4.894050121E0,4.081050396E0,7.084050179E0
1.939624376E1,-4.516050339E0,4.354050159E0,4.843050003E0
1.941534230E1,-3.697050095E0,4.392000198E0,5.098950386E0
1.943444072E1,-3.895950079E0,3.742950201E0,8.014950752E0
1.945353940E1,-4.645050049E0,3.145050049E0,9.933000565E0
1.947263787E1,-4.565999985E0,3.324000120E0,8.536950111E0
1.949173634E1,-3.892950296E0,3.694950104E0,6.724950314E0
1.951083490E1,-3.189000130E0,3.765000105E0,7.381050587E0
1.952993364E1,-2.631000042E0,3.741000175E0,9.061050415E0
1.954903211E1,-2.548050165E0,3.556950092E0,9.804000854E0
1.956813058E1,-2.257950068E0,3.556950092E0,9.555000305E0
1.958722914E1,-1.707000136E0,3.798000097E0,8.259000778E0
1.960632757E1,-1.033950090E0,3.697950125E0,8.440950394E0
1.962542626E1,-9.430500269E-1,3.382050276E0,1.086405087E1
1.964452481E1,-1.461000085E0,2.890950203E0,1.207605076E1
1.966362331E1,-1.711950064E0,2.719050169E0,1.063695049E1
1.968272203E1,-1.228050113E0,2.661000013E0,7.764000416E0
1.970182051E1,-4.309500158E-1,2.386050224E0,7.759050369E0
1.972091898E1,-1.459500045E-1,2.163000107E0,1.046700096E1
1.974001756E1,1.605000161E-2,1.794000030E0,1.179795074E1
1.975911599E1,-2.680500150E-1,1.633950114E0,1.012200069E1
1.977821468E1,9.495000541E-2,1.681950092E0,8.668950081E0
1.979731320E1,9.090000391E-1,1.741950035E0,9.346050262E0
1.981641167E1,1.275000095E0,1.471050024E0,1.060305023E1
1.983551038E1,1.312950015E0,1.126049995E0,1.114005089E1
1.985460884E1,1.428000093E0,1.021050096E0,1.098195076E1
1.987370730E1,1.488000035E0,9.250500202E-1,1.039995003E1
1.989280580E1,1.540950060E0,8.820000291E-1,1.041900063E1
1.991190450E1,1.795050144E0,9.559500217E-1,1.027305031E1
1.993100297E1,2.617950201E0,1.123950005E0,9.631050110E0
1.995010142E1,3.412950277E0,1.083000064E0,9.313050270E0
1.996919995E1,3.580950260E0,9.300000668E-1,1.023495007E1
1.998829840E1,3.460950136E0,7.840500474E-1,1.078500080E1
2.000739708E1,3.565950155E0,7.579500079E-1,1.030605030E1
2.002649560E1,3.901950121E0,6.910500526E-1,9.331950188E0
2.004559405E1,4.427999973E0,6.790500283E-1,8.568000793E0
2.006469272E1,5.044050217E0,6.120000482E-1,8.560950279E0
2.008379121E1,5.463000298E0,5.449500084E-1,9.282000542E0
2.010288964E1,5.749950409E0,3.790500164E-1,9.697950363E0
2.012198818E1,5.716950417E0,3.100500107E-1,9.444000244E0
2.014108684E1,5.773950100E0,1.780500114E-1,9.070950508E0
2.016018530E1,6.126000404E0,8.505000174E-2,9.448950768E0
2.017928384E1,6.070950508E0,1.500000060E-2,9.949950218E0
2.019838226E1,6.045000076E0,-1.200000010E-2,9.744000435E0
2.021748077E1,6.231000423E0,-2.110500038E-1,9.484950066E0
2.023657946E1,6.163950443E0,-4.770000279E-1,9.294000626E0
2.025567802E1,6.223950386E0,-6.210000515E-1,8.844000816E0
2.027477647E1,6.115950108E0,-8.140500188E-1,8.425050735E0
2.029387517E1,5.958000183E0,-9.889500737E-1,8.002950668E0
2.031297366E1,6.078000069E0,-1.020000100E0,8.032050133E0
2.033207221E1,6.442050457E0,-1.092000008E0,8.447999954E0
2.035117069E1,6.865950108E0,-1.224000096E0,9.054000854E0
2.037026938E1,6.823050499E0,-1.228950024E0,9.499950409E0
2.038936782E1,6.733950138E0,-1.333950043E0,9.327000618E0
2.040846636E1,6.418050289E0,-1.357950091E0,8.832000732E0
2.042756482E1,6.504000187E0,-1.365000010E0,8.356950760E0
2.044666348E1,6.865950108E0,-1.237950087E0,8.092050552E0
2.046576196E1,7.359000206E0,-8.740500212E-1,8.247000694E0
2.048486048E1,7.597950459E0,-5.509500504E-1,8.592000008E0
2.050395919E1,7.609950542E0,-4.720500112E-1,8.809950829E0
2.052305765E1,7.420950413E0,-4.699500203E-1,9.088050842E0
2.054215613E1,7.182000160E0,-5.299500227E-1,9.364950180E0
2.056125468E1,7.167000294E0,-5.680500269E-1,9.511950493E0
2.058035315E1,7.297050476E0,-5.410500169E-1,9.571050644E0
2.059945181E1,7.285050392E0,-5.770500302E-1,9.682050705E0
2.061855029E1,7.315950394E0,-6.559500098E-1,9.703050613E0
2.063764879E1,7.054950237E0,-8.140500188E-1,9.576000214E0
2.065674727E1,6.439950466E0,-1.003950000E0,9.145050049E0
2.067584599E1,6.103950500E0,-1.042050004E0,8.772000313E0
2.069494443E1,6.334050179E0,-8.910000324E-1,8.914950371E0
2.071404296E1,6.700950146E0,-8.790000677E-1,9.631050110E0
2.073314165E1,6.303000450E0,-9.250500202E-1,9.765000343E0
2.075224009E1,6.241050243E0,-9.820500612E-1,9.463950157E0
2.077133854E1,6.387000084E0,-8.839500546E-1,8.977950096E0
2.079043709E1,6.375000477E0,-8.650500178E-1,8.772000313E0
2.080953557E1,6.061050415E0,-8.410500288E-1,9.070950508E0
2.082863429E1,5.961000443E0,-7.950000167E-1,9.852000237E0
2.084773282E1,5.968050480E0,-8.190000653E-1,9.934950829E0
2.086683134E1,5.544000149E0,-7.549500465E-1,9.403950691E0
2.088592981E1,4.930950165E0,-6.469500065E-1,9.045000076E0
2.090502848E1,4.759050369E0,-5.749500394E-1,9.148050308E0
2.092412694E1,4.756050110E0,-4.789500237E-1,9.283950806E0
2.094322548E1,4.584000111E0,-3.120000064E-1,9.343950272E0
2.096232416E1,4.426050186E0,-1.900500059E-1,9.571050644E0
2.098142265E1,3.994950294E0,-1.339500099E-1,9.823050499E0
2.100052111E1,3.685950279E0,-1.009500027E-1,9.765000343E0
2.101961961E1,3.193050146E0,7.800000161E-2,9.729000092E0
2.103871809E1,3.076050043E0,2.329500169E-1,9.610050201E0
2.105781678E1,2.977050066E0,4.030500054E-1,9.676950455E0
2.107691534E1,2.649000168E0,4.920000136E-1,9.961950302E0
2.109601376E1,2.343000174E0,5.400000215E-1,9.921000481E0
2.111511222E1,1.921950102E0,5.879999995E-1,1.004505062E1
2.113421090E1,1.728000045E0,7.980000377E-1,1.007205009E1
2.115330939E1,1.440000057E0,9.949500561E-1,9.874950409E0
2.117240791E1,1.048050046E0,1.150050044E0,9.829950333E0
2.119150659E1,7.699500322E-1,1.284000039E0,9.904050827E0
2.121060502E1,4.609500170E-1,1.344000101E0,9.825000763E0
2.122970349E1,1.830000132E-1,1.408950090E0,1.004295063E1
2.124880205E1,-1.680000126E-1,1.488000035E0,1.022700024E1
2.126790047E1,-4.810500145E-1,1.642950058E0,9.835050583E0
2.128699916E1,-4.860000312E-1,1.897050142E0,9.397050858E0
2.130609767E1,-4.690500200E-1,2.042999983E0,9.246000290E0
2.132519618E1,-9.000000358E-1,2.002950191E0,9.636000633E0
2.134429459E1,-1.687950134E0,1.894950032E0,1.023900032E1
2.136339330E1,-2.311050177E0,1.915950060E0,1.026795006E1
2.138249174E1,-2.445000172E0,2.131950140E0,9.550050735E0
2.140159026E1,-2.361000061E0,2.431050062E0,8.863050461E0
2.142068898E1,-2.344050169E0,2.893050194E0,8.617950439E0
2.143978746E1,-2.329950094E0,3.075000048E0,8.664000511E0
2.145888594E1,-2.440050125E0,3.196950197E0,8.203949928E0
2.147798449E1,-2.835000038E0,3.360000134E0,7.725000381E0
2.149708320E1,-3.010050058E0,3.469950199E0,7.656000137E0
2.151618165E1,-3.228000164E0,3.544950247E0,7.419000149E0
2.153528021E1,-3.429000139E0,3.649950266E0,7.134000301E0
2.155437866E1,-3.663000107E0,3.727050066E0,6.945000172E0
2.157347736E1,-3.823950291E0,3.810000181E0,7.132050514E0
2.159257588E1,-4.269000053E0,3.861000299E0,7.452000141E0
2.161167436E1,-4.743000031E0,3.724050283E0,7.539000511E0
2.163077286E1,-5.028000355E0,3.802950144E0,7.105050564E0
2.164987152E1,-4.900950432E0,4.081050396E0,6.331950188E0
2.166896998E1,-4.912950039E0,4.291950226E0,6.171000481E0
2.168806841E1,-4.971000195E0,4.270050049E0,6.138000488E0
2.170716719E1,-5.442000389E0,4.146000385E0,5.944050312E0
2.172626567E1,-5.892000198E0,4.047000408E0,5.662050247E0
2.174536421E1,-5.722050190E0,4.291950226E0,5.214000225E0
2.176446266E1,-5.385000229E0,4.741950035E0,4.438050270E0
2.178356135E1,-4.948950291E0,5.398050308E0,3.997050285E0
2.180265985E1,-4.681050301E0,5.872050285E0,4.258049965E0
2.182175840E1,-5.074050426E0,5.830950260E0,4.891050339E0
2.184085686E1,-5.695950508E0,5.568000317E0,5.299950123E0
2.185995533E1,-6.165000439E0,5.364000320E0,5.194950104E0
2.187905406E1,-6.462000370E0,5.244000435E0,5.062950134E0
2.189815260E1,-6.489000320E0,5.283000469E0,4.717950344E0
2.191725110E1,-6.334950447E0,5.539050102E0,4.243950367E0
2.193634978E1,-6.268050194E0,5.668050289E0,4.219950199E0
2.195544824E1,-6.184050083E0,5.862000465E0,3.937950134E0
2.197454678E1,-5.821050167E0,6.196950436E0,3.379950047E0
2.199364523E1,-5.631000042E0,6.496950150E0,2.620950222E0
2.201274394E1,-5.578950405E0,6.604050159E0,2.293050051E0
2.203184240E1,-5.689050198E0,6.597000122E0,2.101050138E0
2.205094092E1,-5.998050213E0,6.568950176E0,2.041050196E0
2.207003962E1,-6.412050247E0,6.406050205E0,2.259000063E0
2.208913809E1,-6.703950405E0,6.196950436E0,2.677950144E0
2.210823654E1,-6.939000130E0,6.051000118E0,3.118950129E0
2.212733507E1,-6.984000206E0,6.025050163E0,2.929950237E0
2.214643373E1,-6.682050228E0,6.111000061E0,2.106000185E0
2.216553219E1,-6.172050476E0,6.264000416E0,9.540000558E-1
2.218463074E1,-5.718000412E0,6.520950317E0,7.605000585E-2
2.220372922E1,-5.445000172E0,6.633000374E0,-6.370500326E-1
2.222282769E1,-5.470950127E0,6.679050446E0,-8.980500698E-1
2.224192645E1,-5.581050396E0,6.706950188E0,-1.018050075E0
2.226102489E1,-5.674050331E0,6.772050381E0,-9.169500470E-1
2.228012337E1,-5.715000153E0,6.796050549E0,-3.090000153E-1
2.229922207E1,-5.686050415E0,6.552000523E0,4.009500146E-1
2.231832062E1,-5.775000095E0,6.336000443E0,5.550000072E-1
2.233741908E1,-5.914050102E0,6.274050236E0,1.590000093E-1
2.235651756E1,-5.871000290E0,6.223950386E0,-3.299999982E-2
2.237561626E1,-5.815950394E0,6.267000198E0,2.505000122E-2
2.239471471E1,-5.713050365E0,6.276000500E0,-1.459500045E-1
2.241381323E1,-5.593050480E0,6.268950462E0,-2.659500241E-1
2.243291189E1,-5.244000435E0,6.490050316E0,-3.259500265E-1
2.245201038E1,-4.714050293E0,6.670950413E0,-5.890500546E-1
2.247110882E1,-4.492050171E0,6.739050388E0,-1.039050102E0
2.249020735E1,-4.699950218E0,6.528000355E0,-7.710000277E-1
2.250930604E1,-4.995000362E0,6.106050491E0,6.769500375E-1
2.252840450E1,-5.145000458E0,5.845050335E0,2.032050133E0
2.254750304E1,-4.927050114E0,6.115950108E0,2.009999990E0
2.256660149E1,-4.807950020E0,6.154050350E0,2.310000181E0
2.258570016E1,-4.963050365E0,5.704050064E0,4.194000244E0
2.260479870E1,-5.466000080E0,5.173050404E0,6.109050274E0
2.262389716E1,-5.706000328E0,5.182050228E0,5.911050320E0
2.264299562E1,-5.554950237E0,5.235000134E0,5.199000359E0
2.266209433E1,-5.437050343E0,5.163000107E0,5.685000420E0
2.268119281E1,-5.392050266E0,5.007000446E0,6.708000183E0
2.270029131E1,-5.287050247E0,4.837050438E0,6.589950085E0
2.271938978E1,-4.875000000E0,4.957050323E0,5.745000362E0
2.273848852E1,-4.528050423E0,4.914000034E0,5.560950279E0
2.275758707E1,-4.606950283E0,4.560000420E0,5.965950489E0
2.277668551E1,-4.657050133E0,4.210050106E0,6.499950409E0
2.279578420E1,-4.270950317E0,4.117050171E0,6.439950466E0
2.281488266E1,-3.433050156E0,4.368000031E0,6.318000317E0
2.283398120E1,-3.072000027E0,4.138050079E0,7.539000511E0
2.285307991E1,-3.417000055E0,3.880050182E0,8.797950745E0
2.287217836E1,-3.538950205E0,3.934950113E0,8.119950294E0
2.289127683E1,-2.947050095E0,4.192950249E0,6.850950241E0
2.291037539E1,-1.966050148E0,4.248000145E0,7.713000298E0
2.292947385E1,-1.858050108E0,3.976050138E0,9.331950188E0
2.294857251E1,-1.930050135E0,3.706950188E0,9.331950188E0
2.296767103E1,-1.615950108E0,3.790950298E0,8.227950096E0
2.298676948E1,-1.350000024E0,3.667050123E0,9.121050835E0
2.300586796E1,-1.510950089E0,3.291000128E0,1.086000061E1
2.302496666E1,-1.738050103E0,2.974950075E0,1.130205059E1
2.304406521E1,-1.429050088E0,3.121050119E0,1.016805077E1
2.306316364E1,-8.790000677E-1,3.334050179E0,9.816000938E0
2.308226232E1,-8.449500203E-1,3.223950148E0,1.076595020E1
2.310136080E1,-1.089000106E0,2.910000086E0,1.116105080E1
2.312045925E1,-9.430500269E-1,2.788050175E0,1.019595051E1
2.313955780E1,8.805000782E-2,3.094050169E0,8.743050575E0
2.315865646E1,7.699500322E-1,3.043950081E0,8.836050034E0
2.317775494E1,6.619500518E-1,2.635050058E0,1.013595009E1
2.319685346E1,4.800000191E-1,2.254050016E0,1.077795029E1
2.321595193E1,7.990500331E-1,2.091000080E0,9.886950493E0
2.323505059E1,1.570050120E0,2.142000198E0,8.803050041E0
2.325414905E1,1.873950124E0,1.950000048E0,9.685950279E0
2.327324758E1,1.699050069E0,1.588050127E0,1.106100082E1
2.329234607E1,1.432950020E0,1.327050090E0,1.111995029E1
2.331144476E1,1.639050126E0,1.447050095E0,9.990000725E0
2.333054331E1,2.293050051E0,1.744050026E0,8.764950752E0
2.334964176E1,2.520000219E0,1.665000081E0,8.650050163E0
2.336874020E1,2.578050137E0,1.489950061E0,9.418050766E0
2.338783891E1,3.052050114E0,1.509000063E0,9.847050667E0
2.340693740E1,3.303000212E0,1.426050067E0,1.004295063E1
2.342603594E1,3.259950161E0,1.296000004E0,1.081605053E1
2.344513462E1,3.207000256E0,1.131000042E0,1.092900085E1
2.346423312E1,3.370050192E0,1.155000091E0,1.018005085E1
2.348333167E1,3.370050192E0,1.047000051E0,9.745950699E0
2.350243012E1,3.363000154E0,9.079500437E-1,9.828000069E0
2.352152883E1,3.777000189E0,8.800500631E-1,9.640950203E0
2.354062730E1,4.279950142E0,8.940000534E-1,9.310050011E0
2.355972586E1,4.491000175E0,7.740000486E-1,9.090000153E0
2.357882432E1,4.645950317E0,5.560500026E-1,8.965950012E0
2.359792278E1,4.906949997E0,4.320000112E-1,8.863050461E0
2.361702148E1,5.245050430E0,3.529500067E-1,8.676000595E0
2.363611998E1,5.506050110E0,2.880000174E-1,8.419950485E0
2.365521842E1,5.941950321E0,2.620500028E-1,8.520000458E0
2.367431712E1,5.950950146E0,3.049500287E-1,8.620950699E0
2.369341556E1,6.045000076E0,3.030000031E-1,8.652000427E0
2.371251409E1,6.186000347E0,5.590500236E-1,8.554050446E0
2.373161258E1,6.555000305E0,5.160000324E-1,8.595000267E0
2.375071125E1,6.388950348E0,2.280000150E-1,8.359950066E0
2.376980970E1,6.583050251E0,3.100500107E-1,8.368950844E0
2.378890822E1,6.649950504E0,2.380500138E-1,8.701950073E0
2.380800665E1,6.379950523E0,2.500500083E-1,8.740950584E0
2.382710535E1,6.403950214E0,1.590000093E-1,8.314050674E0
2.384620384E1,6.475950241E0,1.830000132E-1,7.873950481E0
2.386530240E1,6.634050369E0,1.639500111E-1,7.503000259E0
2.388440086E1,6.909000397E0,8.505000174E-2,7.456950188E0
2.390349952E1,6.946950436E0,-4.095000029E-2,8.131950378E0
2.392259798E1,6.664950371E0,-4.240500331E-1,9.073050499E0
2.394169650E1,6.460950375E0,-7.690500617E-1,9.388950348E0
2.396079494E1,6.592950344E0,-8.190000653E-1,9.310050011E0
2.397989365E1,6.966000557E0,-5.869500041E-1,8.998950005E0
2.399899212E1,7.336950302E0,-3.360000253E-1,8.595000267E0
2.401809065E1,7.491000175E0,-1.080000028E-1,8.641950607E0
2.403718912E1,7.665000439E0,1.995000057E-2,9.247950554E0
2.405628780E1,7.717950344E0,-1.200000010E-2,9.874950409E0
2.407538625E1,7.372950554E0,-1.699500084E-1,1.025595093E1
2.409448477E1,7.038000107E0,-3.360000253E-1,1.035705090E1
2.411358326E1,6.865950108E0,-3.790500164E-1,1.031400013E1
2.413268195E1,6.880050182E0,-3.400500119E-1,1.003605080E1
2.415178040E1,6.969000340E0,-2.280000150E-1,9.897000313E0
2.417087897E1,6.997050285E0,-1.369500011E-1,1.010295010E1
2.418997742E1,6.793950558E0,-1.319999993E-1,1.028505039E1
2.420907609E1,6.763050556E0,-1.990500093E-1,1.058895016E1
2.422817456E1,6.592950344E0,-3.070500195E-1,1.099095058E1
2.424727311E1,6.403950214E0,-4.720500112E-1,1.129500008E1
2.426637158E1,6.310050488E0,-5.650500059E-1,1.117095089E1
2.428547028E1,6.187950134E0,-4.740000367E-1,1.079205036E1
2.430456872E1,6.042000294E0,-3.090000153E-1,1.068705082E1
2.432366725E1,6.052050114E0,-2.299500108E-1,1.028700066E1
2.434276573E1,6.057000160E0,-1.080000028E-1,9.861000061E0
2.436186444E1,5.623050213E0,-7.905000448E-2,9.873000145E0
2.438096291E1,5.263950348E0,1.500000060E-2,9.856050491E0
2.440006141E1,4.713000298E0,6.795000285E-2,9.817950249E0
2.441915988E1,4.036050320E0,6.300000101E-2,9.954000473E0
2.443825859E1,3.625950098E0,1.210500076E-1,9.745950699E0
2.445735703E1,3.720000267E0,3.960000277E-1,9.331950188E0
2.447645555E1,3.387000084E0,6.979500055E-1,9.243000031E0
2.449555402E1,2.748000145E0,8.029500246E-1,9.475950241E0
2.451465275E1,2.197050095E0,9.300000668E-1,9.399000168E0
2.453375124E1,1.744050026E0,1.114050031E0,9.032999992E0
2.455284979E1,1.621950030E0,1.441950083E0,8.815050125E0
2.457194822E1,1.492950082E0,1.705950022E0,9.032999992E0
2.459104688E1,9.760500193E-1,1.780050039E0,9.064050674E0
2.461014536E1,2.910000086E-1,1.825050116E0,8.632950783E0
2.462924391E1,-3.880500197E-1,2.067000151E0,8.311950684E0
2.464834236E1,-3.379500210E-1,2.350050211E0,8.158950806E0
2.466744107E1,-6.370500326E-1,2.635050058E0,8.013000488E0
2.468653957E1,-7.230000496E-1,2.737950087E0,7.966950417E0
2.470563809E1,-8.550000191E-1,2.995950222E0,7.903050423E0
2.472473654E1,-1.117950082E0,3.199950218E0,7.930950165E0
2.474383495E1,-1.549050093E0,3.327000141E0,8.062950134E0
2.476293362E1,-1.888950109E0,3.511050224E0,8.017050743E0
2.478203216E1,-2.169000149E0,3.633000135E0,7.771050453E0
2.480113062E1,-2.521050215E0,3.727050066E0,7.620000362E0
2.482022911E1,-2.575950146E0,3.810000181E0,7.618050575E0
2.483932778E1,-2.880000114E0,3.853050232E0,7.498050213E0
2.485842628E1,-3.292050123E0,3.817950249E0,7.720950603E0
2.487752480E1,-3.586950064E0,3.874950171E0,7.885950565E0
2.489662325E1,-3.649050236E0,4.033050060E0,7.632000446E0
2.491572191E1,-3.594000101E0,4.363049984E0,7.251000404E0
2.493482039E1,-3.630000114E0,4.648050308E0,7.050000191E0
2.495391893E1,-3.771000147E0,4.846950054E0,7.213050365E0
2.497301743E1,-3.910050154E0,4.986000061E0,7.096050262E0
2.499211613E1,-4.033950329E0,5.098050117E0,6.769950390E0
2.501121460E1,-4.164000034E0,5.284950256E0,6.496950150E0
2.503031317E1,-4.386000156E0,5.326050282E0,6.672000408E0
2.504941164E1,-4.555950165E0,5.419050217E0,6.672000408E0
2.506851035E1,-4.705049992E0,5.473950386E0,6.186000347E0
2.508760875E1,-4.840950012E0,5.553000450E0,6.034950256E0
2.510670723E1,-4.840950012E0,5.766000271E0,5.724000454E0
2.512580576E1,-4.753050327E0,5.935950279E0,5.221050262E0
2.514490447E1,-4.639950275E0,5.994000435E0,5.290050030E0
2.516400293E1,-4.657050133E0,6.037050247E0,5.644950390E0
2.518310144E1,-4.843950272E0,6.042000294E0,5.499000072E0
2.520219993E1,-5.160000324E0,6.030000210E0,4.897950172E0
2.522129861E1,-5.257950306E0,5.982000351E0,4.642050266E0
2.524039706E1,-5.410950184E0,5.860050201E0,4.765950203E0
2.525949550E1,-5.458950043E0,5.850000381E0,4.825950146E0
2.527859403E1,-5.461050034E0,5.935950279E0,4.656000137E0
2.529769249E1,-5.647950172E0,5.889000416E0,4.303950310E0
2.531679099E1,-5.809050083E0,5.974950314E0,4.030950069E0
2.533588970E1,-5.833050251E0,6.103950500E0,3.868050098E0
2.535498823E1,-6.097950459E0,6.255000114E0,3.727050066E0
2.537408692E1,-6.156000137E0,6.274050236E0,3.777000189E0
2.539318543E1,-6.265950203E0,6.247950077E0,3.559050083E0
2.541228391E1,-6.289950371E0,6.268950462E0,3.076050043E0
2.543138241E1,-6.196050167E0,6.355050087E0,2.629950047E0
2.545048086E1,-6.010050297E0,6.456000328E0,2.452950001E0
2.546957929E1,-5.896950245E0,6.511050224E0,2.038950205E0
2.548867799E1,-5.806050301E0,6.520950317E0,1.572000027E0
2.550777648E1,-5.718000412E0,6.577950478E0,1.114950061E0
2.552687504E1,-5.643000126E0,6.786000252E0,5.950500369E-1
2.554597375E1,-5.545050144E0,6.870000362E0,4.489500225E-1
2.556507221E1,-5.503950119E0,6.868050098E0,5.190000534E-1
2.558417076E1,-5.590950489E0,6.688050270E0,3.919500113E-1
2.560326923E1,-5.494950294E0,6.601950169E0,-1.600500047E-1
2.562236768E1,-5.341950417E0,6.637950420E0,-1.306950092E0
2.564146638E1,-5.215050220E0,6.661950111E0,-2.253000021E0
2.566056486E1,-5.047050476E0,6.673950195E0,-2.193000078E0
2.567966339E1,-5.004000187E0,6.532950401E0,-1.611000061E0
2.569876187E1,-5.140950203E0,6.352950096E0,-7.660500407E-1
2.571786057E1,-5.208000183E0,6.169050217E0,2.295000106E-2
2.573695905E1,-5.275050163E0,6.109050274E0,5.550000072E-1
2.575605749E1,-5.325000286E0,6.316950321E0,2.530499995E-1
2.577515601E1,-5.056950092E0,6.589950085E0,-2.680500150E-1
2.579425469E1,-5.044950008E0,6.523050308E0,-1.129500046E-1
2.581335314E1,-5.248050213E0,6.243000507E0,6.240000129E-1
2.583245165E1,-5.311050415E0,5.953050137E0,1.468950033E0
2.585155008E1,-5.490000248E0,5.865000248E0,1.687050104E0
2.587064853E1,-5.418000221E0,5.866950512E0,2.013000011E0
2.588974722E1,-5.064000130E0,5.788050175E0,3.259950161E0
2.590884567E1,-4.888950348E0,5.668050289E0,4.965000153E0
2.592794420E1,-5.155050278E0,5.539050102E0,5.788050175E0
2.594704265E1,-5.254950047E0,5.557950497E0,5.482050419E0
2.596614109E1,-5.320050240E0,5.383050442E0,5.587050438E0
2.598523979E1,-5.761050224E0,4.828050137E0,6.504000187E0
2.600433826E1,-5.667000294E0,4.596000195E0,6.850950241E0
2.602343677E1,-5.229000092E0,4.905000210E0,5.709000111E0
2.604253525E1,-4.597050190E0,4.905000210E0,5.506050110E0
2.606163396E1,-4.474950314E0,4.584000111E0,6.349050522E0
2.608073240E1,-4.537050247E0,4.279950142E0,6.628950119E0
2.609983089E1,-4.173000336E0,4.435050011E0,5.587050438E0
2.611892944E1,-3.450000048E0,4.486050129E0,5.793000221E0
2.613802789E1,-3.060000181E0,4.335000038E0,6.784050465E0
2.615712659E1,-3.253950119E0,3.798000097E0,7.528950214E0
2.617622513E1,-3.450000048E0,3.583050251E0,7.153050423E0
2.619532360E1,-2.761050224E0,3.643050194E0,6.724950314E0
2.621442206E1,-2.176050186E0,3.628050089E0,8.005949974E0
2.623352073E1,-2.173950195E0,3.262050152E0,8.958000183E0
2.625261934E1,-2.011049986E0,3.118050098E0,8.572950363E0
2.627171780E1,-1.663950086E0,3.183000088E0,8.269050598E0
2.629081628E1,-1.422000051E0,2.929050207E0,9.433050156E0
2.630991500E1,-1.690050125E0,2.539050102E0,1.094100094E1
2.632901345E1,-1.590000033E0,2.386050224E0,1.117605019E1
2.634811191E1,-8.599500656E-1,2.625000238E0,1.027800083E1
2.636721047E1,-5.700000525E-1,2.812050104E0,1.005300045E1
2.638630894E1,-5.440500379E-1,2.766000032E0,1.053600025E1
2.640540762E1,-5.440500379E-1,2.424000025E0,1.039995003E1
2.642450607E1,-1.005000062E-2,2.356950045E0,1.035405064E1
2.644360459E1,4.630500078E-1,2.308950186E0,1.097700024E1
2.646270308E1,2.910000086E-1,2.086050034E0,1.118295097E1
2.648180175E1,4.249500334E-1,1.924050093E0,1.066605091E1
2.650090020E1,1.126950026E0,1.974000096E0,9.844050407E0
2.651999864E1,1.432950020E0,1.881000042E0,1.074195004E1
2.653909718E1,1.210050106E0,1.549950123E0,1.186305046E1
2.655819565E1,1.026000023E0,1.380000114E0,1.174095058E1
2.657729413E1,1.099950075E0,1.438050032E0,1.045500088E1
2.659639281E1,1.603050113E0,1.579050064E0,9.162000656E0
2.661549128E1,2.386050224E0,1.684050083E0,8.305050850E0
2.663458981E1,2.760000229E0,1.609950066E0,8.584950447E0
2.665368830E1,2.977050066E0,1.323000073E0,9.684000015E0
2.667278699E1,2.812050104E0,9.490500689E-1,1.041705036E1
2.669188545E1,2.709000111E0,6.139500141E-1,1.074195004E1
2.671098401E1,2.568000078E0,5.059500337E-1,1.107000065E1
2.673008249E1,2.677950144E0,5.760000348E-1,1.087605095E1
2.674918089E1,3.045000076E0,7.120500207E-1,1.000695038E1
2.676827959E1,3.298050165E0,8.920500278E-1,9.334050179E0
2.678737805E1,3.787050247E0,9.990000725E-1,9.250950813E0
2.680647657E1,4.309050083E0,1.021050096E0,9.175950050E0
2.682557504E1,4.483050346E0,8.509500623E-1,9.439949989E0
2.684467372E1,4.687050343E0,6.910500526E-1,9.646050453E0
2.686377216E1,4.680000305E0,5.010000467E-1,9.433050156E0
2.688287062E1,4.735050201E0,2.860500216E-1,9.195000648E0
2.690196909E1,4.653000355E0,2.839500010E-1,9.138000488E0
2.692106758E1,5.058000088E0,2.620500028E-1,9.262950897E0
2.694016603E1,5.656950474E0,1.350000054E-1,9.162000656E0
2.695926468E1,5.563050270E0,-7.905000448E-2,9.258000374E0
2.697836321E1,5.415000439E0,-3.040500283E-1,9.454050064E0
2.699746164E1,5.227950096E0,-4.789500237E-1,9.279000282E0
2.701656016E1,4.974000454E0,-5.920500159E-1,9.217050552E0
2.703565865E1,4.918950081E0,-5.530500412E-1,9.250950813E0
2.705475732E1,4.953000069E0,-4.429500103E-1,9.178950310E0
2.707385580E1,5.416950226E0,-3.450000286E-1,9.243000031E0
2.709295427E1,5.523000240E0,-6.000000238E-2,9.133049965E0
2.711205280E1,5.869950294E0,7.995000482E-2,8.901000023E0
2.713115150E1,5.779050350E0,1.060500070E-1,8.680950165E0
2.715024995E1,5.641950130E0,-3.900000080E-2,8.713950157E0
2.716934842E1,5.803050041E0,-2.179500163E-1,8.884050369E0
2.718844696E1,6.271950245E0,-6.679500341E-1,8.844000816E0
2.720754536E1,6.727050304E0,1.609500051E-1,9.021000862E0
2.722664387E1,7.242000580E0,-5.295000225E-2,9.439949989E0
2.724574259E1,6.973950386E0,-1.339500099E-1,9.295950890E0
2.726484103E1,6.484950542E0,-3.160500228E-1,9.064050674E0
2.728393958E1,6.340950489E0,-3.930000067E-1,9.133049965E0
2.730303803E1,6.619050503E0,-3.330000043E-1,9.480000496E0
2.732213650E1,6.669000149E0,-3.640500307E-1,9.753000259E0
2.734123518E1,6.303000450E0,-5.340000391E-1,1.002195072E1
2.736033361E1,6.004050255E0,-7.350000143E-1,1.039995003E1
2.737943212E1,5.776050091E0,-8.700000644E-1,1.105605030E1
2.739853067E1,5.191950321E0,-1.126049995E0,1.135800076E1
2.741762917E1,4.677000046E0,-1.372050047E0,1.148700047E1
2.743672763E1,5.029050350E0,-1.120950103E0,1.154400063E1
2.745582632E1,5.641950130E0,-7.639500499E-1,1.104900074E1
2.747492486E1,5.719050407E0,-6.829500198E-1,1.042095089E1
2.749402332E1,5.773950100E0,-6.540000439E-1,1.006905079E1
2.751312173E1,5.581950188E0,-5.700000525E-1,9.988050461E0
2.753222040E1,5.379000187E0,-6.420000196E-1,9.625950813E0
2.755131884E1,5.053050041E0,-5.680500269E-1,9.736950874E0
2.757041741E1,4.989000320E0,-5.629500151E-1,9.988050461E0
2.758951582E1,4.986000061E0,-6.559500098E-1,9.907050133E0
2.760861433E1,4.488000393E0,-5.850000381E-1,9.727050781E0
2.762771281E1,4.041000366E0,-4.549500346E-1,9.624000549E0
2.764681148E1,3.973050117E0,-2.089500129E-1,9.816000938E0
2.766590997E1,3.945000172E0,-2.700000070E-2,1.007400036E1
2.768500849E1,3.460950136E0,9.900000691E-2,1.004100037E1
2.770410694E1,3.045000076E0,1.260000020E-1,1.012005043E1
2.772320565E1,2.728050232E0,1.690500081E-1,1.049595070E1
2.774230414E1,2.127000093E0,2.089500129E-1,1.059405041E1
2.776140261E1,1.696950078E0,3.430500031E-1,1.053405094E1
2.778050111E1,1.347000122E0,6.330000162E-1,1.000200081E1
2.779959961E1,1.282050014E0,8.680500388E-1,9.315000534E0
2.781869808E1,1.086000085E0,1.081050038E0,9.016050339E0
2.783779679E1,6.670500040E-1,1.239000082E0,9.508950233E0
2.785689519E1,3.100500107E-1,1.066050053E0,9.592950821E0
2.787599364E1,-1.939500123E-1,1.111950040E0,9.564000130E0
2.789509217E1,-6.130500436E-1,1.105050087E0,9.540000916E0
2.791419061E1,-8.670000434E-1,1.159950018E0,9.307950020E0
2.793328931E1,-1.128000021E0,1.363050103E0,8.788050652E0
2.795238778E1,-1.276050091E0,1.612050056E0,8.539050102E0
2.797148624E1,-1.495950103E0,1.702950120E0,8.704950333E0
2.799058478E1,-2.014050007E0,1.651050091E0,8.902950287E0
2.800968325E1,-2.131050110E0,1.798950076E0,8.749950409E0
2.802878174E1,-2.368050098E0,1.933050036E0,8.353050232E0
2.804788042E1,-2.880000114E0,1.846950054E0,8.499000549E0
2.806697887E1,-3.055050135E0,1.930950046E0,8.640000343E0
2.808607740E1,-3.378000259E0,2.151000023E0,8.386050224E0
2.810517588E1,-3.619950056E0,2.275950193E0,8.122950554E0
2.812427443E1,-3.771000147E0,2.368950129E0,8.017050743E0
2.814337291E1,-4.080000401E0,2.410050154E0,8.094000816E0
2.816247160E1,-4.473000050E0,2.479050159E0,7.965000153E0
2.818157005E1,-4.611000061E0,2.620050192E0,7.936050415E0
2.820066858E1,-4.501049995E0,2.860050201E0,7.941000462E0
2.821976705E1,-4.693050385E0,3.046950102E0,7.696950436E0
2.823886551E1,-4.900950432E0,3.160950184E0,7.339950562E0
2.825796395E1,-5.064000130E0,3.351000071E0,7.017000198E0
2.827706266E1,-5.196000099E0,3.496950150E0,6.708000183E0
2.829616112E1,-5.281950474E0,3.661950111E0,6.562050343E0
2.831525955E1,-5.269950390E0,3.817950249E0,6.250950336E0
2.833435807E1,-5.410950184E0,3.955950260E0,5.902950287E0
2.835345677E1,-5.527950287E0,4.021049976E0,5.893950462E0
2.837255524E1,-5.983050346E0,4.038000107E0,5.700000286E0
2.839165368E1,-6.309000492E0,3.937050104E0,5.439000130E0
2.841075212E1,-6.156000137E0,3.985050201E0,5.436000347E0
2.842985067E1,-6.148950100E0,4.087950230E0,5.487000465E0
2.844894914E1,-6.211050510E0,4.260000229E0,4.914000034E0
2.846804761E1,-5.962050438E0,4.532999992E0,4.087950230E0
2.848714629E1,-5.986050129E0,4.669950008E0,3.540000200E0
2.850624476E1,-5.859000206E0,4.912050247E0,3.496950150E0
2.852534322E1,-5.883000374E0,5.158050060E0,3.151950121E0
2.854444178E1,-6.205950260E0,5.143950462E0,2.701950073E0
2.856354025E1,-6.675000191E0,5.089050293E0,3.054000139E0
2.858263895E1,-6.883950233E0,4.902000427E0,3.825000286E0
2.860173737E1,-7.020000458E0,4.770000458E0,4.273050308E0
2.862083586E1,-7.432050228E0,4.714950085E0,4.021049976E0
2.863993437E1,-7.723950386E0,4.773000240E0,3.586050272E0
2.865903287E1,-7.662000179E0,4.816050053E0,3.234000206E0
2.867813134E1,-7.329000473E0,4.960050106E0,2.985000134E0
2.869723003E1,-7.003050327E0,5.175000191E0,2.506050110E0
2.871632850E1,-6.892950535E0,5.335050106E0,1.840050101E0
2.873542695E1,-6.936000347E0,5.412000179E0,1.432950020E0
2.875452548E1,-6.979050159E0,5.440950394E0,1.378050089E0
2.877362395E1,-6.730050087E0,5.580000401E0,1.476000071E0
2.879272239E1,-6.556050301E0,5.644050121E0,1.396950126E0
2.881182107E1,-6.520050526E0,5.644050121E0,1.074000001E0
2.883091956E1,-6.265950203E0,5.740050316E0,7.870500088E-1
2.885001803E1,-5.974050522E0,5.836050510E0,6.790500283E-1
2.886911654E1,-5.998050213E0,5.733000278E0,6.409500241E-1
2.888821503E1,-6.229950428E0,5.637000084E0,5.329500437E-1
2.890731352E1,-6.156000137E0,5.757000446E0,2.380500138E-1
2.892641220E1,-5.964000225E0,5.910000324E0,1.759500057E-1
2.894551066E1,-5.830050468E0,6.049050331E0,7.129500508E-1
2.896460917E1,-5.787000179E0,6.151950359E0,1.026000023E0
2.898370763E1,-5.718000412E0,6.102000237E0,1.177050114E0
2.900280610E1,-5.703000069E0,5.932050228E0,1.191000104E0
2.902190479E1,-5.691000462E0,5.572950363E0,1.291950107E0
2.904100326E1,-5.872950077E0,5.388000488E0,1.254000068E0
2.906010172E1,-5.643000126E0,5.422050476E0,6.289500594E-1
2.907920020E1,-5.469000340E0,5.307000160E0,9.160500169E-1
2.909829868E1,-5.452050209E0,4.864050388E0,2.575050116E0
2.911739715E1,-5.599950314E0,4.588050365E0,3.934950113E0
2.913649581E1,-5.308050156E0,4.711050034E0,3.246000051E0
2.915559428E1,-4.669050217E0,4.736999989E0,3.118950129E0
2.917469275E1,-4.846050262E0,4.165050030E0,4.703999996E0
2.919379132E1,-5.715000153E0,3.544950247E0,6.589950085E0
2.921288980E1,-5.670000076E0,3.525000095E0,5.905950069E0
2.923198847E1,-4.804950237E0,3.844050169E0,4.399950027E0
2.925108695E1,-4.019999981E0,3.853050232E0,4.486050129E0
2.927018542E1,-4.054049969E0,3.202050209E0,7.012050152E0
2.928928389E1,-4.623000145E0,2.830950022E0,8.173049927E0
2.930838246E1,-4.113000393E0,3.148950100E0,6.622050285E0
2.932748090E1,-2.911050081E0,3.577950239E0,6.081000328E0
2.934657936E1,-2.847000122E0,3.049050093E0,8.817000389E0
2.936567805E1,-3.529050112E0,2.640000105E0,1.103895092E1
2.938477650E1,-3.454950094E0,2.842950106E0,9.343950272E0
2.940387507E1,-2.643000126E0,3.127950191E0,7.681950569E0
2.942297352E1,-2.265000105E0,2.685000181E0,9.025050163E0
2.944207196E1,-2.406000137E0,2.203950167E0,1.159695053E1
2.946117063E1,-2.677050114E0,2.011950016E0,1.116105080E1
2.948026910E1,-2.782050133E0,2.009999990E0,9.700950623E0
2.949936752E1,-2.373000145E0,2.055000067E0,9.496950150E0
2.951846606E1,-1.309950113E0,2.187000036E0,9.727050781E0
2.953756452E1,-9.049500227E-1,2.127000093E0,1.039995003E1
2.955666298E1,-1.069950104E0,1.987950087E0,1.157100010E1
2.957576163E1,-1.269000053E0,1.854000092E0,1.132605076E1
2.959486007E1,-8.449500203E-1,2.050950050E0,9.787050247E0
2.961395860E1,1.690500081E-1,2.230050087E0,8.235000610E0
2.963305704E1,8.440500498E-1,2.062050104E0,9.139950752E0
2.965215551E1,6.720000505E-1,1.540950060E0,1.116795063E1
2.967125422E1,2.650500238E-1,1.203000069E0,1.207800102E1
2.969035268E1,5.470499992E-1,1.192950010E0,1.119000053E1
2.970945112E1,1.242000103E0,1.371000051E0,9.811050415E0
2.972854961E1,2.068050146E0,1.393950105E0,8.902950287E0
2.974764815E1,2.290050030E0,1.129050016E0,9.519000053E0
2.976674663E1,2.143949986E0,8.629500270E-1,1.094295025E1
2.978584533E1,2.227950096E0,5.879999995E-1,1.138095093E1
2.980494383E1,2.338050127E0,4.819500148E-1,1.127595043E1
2.982404239E1,2.247000217E0,3.390000165E-1,1.093395042E1
2.984314088E1,2.130000114E0,2.639999986E-1,1.027305031E1
2.986223932E1,2.368950129E0,3.310500085E-1,9.741000175E0
2.988133780E1,3.126000166E0,5.470499992E-1,9.301050186E0
2.990043649E1,3.387000084E0,4.080000222E-1,9.399000168E0
2.991953496E1,3.373050213E0,1.350000054E-1,1.047900009E1
2.993863348E1,3.304950237E0,-4.305000231E-2,1.185105038E1
2.995773196E1,3.006000042E0,-1.319999993E-1,1.207800102E1
2.997683041E1,2.866950035E0,-7.695000619E-2,1.084995079E1
2.999592885E1,3.154950142E0,1.260000020E-1,9.444000244E0
3.001502753E1,3.850950241E0,3.750000298E-1,8.414999962E0
3.003412601E1,4.657950401E0,4.560000300E-1,7.696950436E0
3.005322455E1,5.415000439E0,3.979500234E-1,8.215950012E0
3.007232302E1,5.704950333E0,3.360000253E-1,9.483000755E0
3.009142169E1,5.704950333E0,3.000000026E-3,1.014795017E1
3.011052016E1,5.154000282E0,-2.089500129E-1,9.649950027E0
3.012961858E1,5.185050011E0,-2.520000041E-1,8.946000099E0
3.014871715E1,5.520000458E0,-1.849500090E-1,8.700000763E0
3.016781564E1,5.644950390E0,-3.760500252E-1,8.860050201E0
3.018691407E1,5.878950119E0,-3.280500174E-1,8.713950157E0
3.020601252E1,5.800050259E0,-4.579500258E-1,8.761950493E0
3.022511124E1,5.563050270E0,-6.040500402E-1,8.902950287E0
3.024420969E1,5.431950092E0,-7.470000386E-1,8.884050369E0
3.026330820E1,5.355000019E0,-8.620500565E-1,8.817000389E0
3.028240668E1,5.472000122E0,-9.169500470E-1,8.731050491E0
3.030150532E1,5.922000408E0,-9.439500570E-1,8.700000763E0
3.032060381E1,5.986950397E0,-1.012950063E0,8.464950562E0
3.033970235E1,6.088050365E0,-1.164000034E0,7.917000294E0
3.035880077E1,6.223950386E0,-1.200000048E0,7.546050549E0
3.037789931E1,6.322050095E0,-1.156949997E0,7.596000195E0
3.039699775E1,6.643050194E0,-1.020000100E0,7.876050472E0
3.041609646E1,6.954000473E0,-7.140000463E-1,8.158950806E0
3.043519492E1,7.258050442E0,-4.309500158E-1,8.524950027E0
3.045429344E1,7.287000179E0,-1.819500029E-1,8.554050446E0
3.047339191E1,7.291950226E0,1.995000057E-2,8.307000160E0
3.049249062E1,7.548000336E0,2.639999986E-1,8.310000420E0
3.051158904E1,7.693950176E0,4.969500303E-1,8.656949997E0
3.053068752E1,7.941000462E0,3.910500109E-1,9.211950302E0
3.054978600E1,7.773000240E0,1.995000057E-2,9.729000092E0
3.056888442E1,7.005000114E0,-3.760500252E-1,1.021800041E1
3.058798296E1,6.436950207E0,-7.879500389E-1,1.050495052E1
3.060708166E1,6.219000340E0,-9.510000348E-1,1.044300079E1
3.062618009E1,6.142950058E0,-9.370500445E-1,1.020600033E1
3.064527856E1,6.114000320E0,-8.170500398E-1,1.006695080E1
3.066437711E1,6.550050259E0,-7.669500113E-1,1.018395042E1
3.068347559E1,6.667050362E0,-7.830000520E-1,1.001895046E1
3.070257429E1,6.238050461E0,-8.239500523E-1,9.933000565E0
3.072167276E1,5.685000420E0,-8.620500565E-1,9.909000397E0
3.074077125E1,5.793000221E0,-8.550000191E-1,1.011000061E1
3.075986980E1,5.733000278E0,-9.559500217E-1,1.037805080E1
3.077896826E1,5.527050495E0,-9.990000725E-1,1.044495010E1
3.079806672E1,5.286000252E0,-9.820500612E-1,1.028700066E1
3.081716542E1,5.317050457E0,-8.050500154E-1,1.010505009E1
3.083626388E1,5.275950432E0,-5.320500135E-1,1.000500011E1
3.085536234E1,5.041050434E0,-3.379500210E-1,9.685950279E0
3.087446085E1,4.840050220E0,-2.760000229E-1,9.732000351E0
3.089355930E1,4.327950001E0,-2.370000184E-1,1.011000061E1
3.091265801E1,3.946950197E0,-1.150500029E-1,1.018395042E1
3.093175650E1,3.813000202E0,9.000000358E-2,9.954000473E0
3.095085501E1,3.645000219E0,2.070000172E-1,9.946950912E0
3.096995347E1,3.267000198E0,3.190500140E-1,1.006500053E1
3.098905192E1,3.045000076E0,4.459500313E-1,9.804000854E0
3.100815061E1,2.796000242E0,5.920500159E-1,9.496950150E0
3.102724911E1,2.388000011E0,7.219500542E-1,9.363000870E0
3.104634757E1,2.008050203E0,6.589500308E-1,9.555000305E0
3.106544612E1,1.416000009E0,7.050000429E-1,9.904050827E0
3.108454461E1,9.640500546E-1,8.130000234E-1,9.840000153E0
3.110364310E1,8.389500380E-1,1.086000085E0,9.439949989E0
3.112274174E1,9.229500294E-1,1.411050081E0,8.872050285E0
3.114184020E1,6.379500031E-1,1.702950120E0,8.749950409E0
3.116093873E1,-3.600000218E-2,1.711050034E0,9.115950584E0
3.118003720E1,-6.970500350E-1,1.699050069E0,8.932050705E0
3.119913589E1,-9.150000215E-1,1.909050107E0,8.911050797E0
3.121823436E1,-1.140000105E0,2.197050095E0,8.997000694E0
3.123733281E1,-1.480050087E0,2.209050179E0,8.740950584E0
3.125643133E1,-2.157000065E0,2.218050003E0,8.863050461E0
3.127552977E1,-2.466000080E0,2.308950186E0,9.006000519E0
3.129462840E1,-2.611950159E0,2.532000065E0,8.779050827E0
3.131372684E1,-3.304050207E0,2.649000168E0,8.709000587E0
3.133282540E1,-3.637050152E0,2.665950060E0,8.832000732E0
3.135192384E1,-3.796950102E0,2.833050251E0,8.178000450E0
3.137102230E1,-3.907950163E0,3.121050119E0,7.357050419E0
3.139012077E1,-3.748950243E0,3.436950207E0,7.122000217E0
3.140921946E1,-3.418950081E0,3.837000132E0,7.246950150E0
3.142831793E1,-3.607950211E0,4.038000107E0,7.158000469E0
3.144741639E1,-4.077000141E0,3.979950190E0,6.942000389E0
3.146651491E1,-4.449000359E0,4.153050423E0,6.958950520E0
3.148561336E1,-4.425000191E0,4.312950134E0,7.105050564E0
3.150471204E1,-4.638000011E0,4.335000038E0,6.646050453E0
3.152381051E1,-4.855950356E0,4.525950432E0,6.187950134E0
3.154290907E1,-5.014050007E0,4.675050259E0,5.932050228E0
3.156200754E1,-5.469000340E0,4.705950260E0,5.920050144E0
3.158110624E1,-5.775000095E0,4.773000240E0,5.946000099E0
3.160020469E1,-5.773050308E0,4.849050045E0,5.865000248E0
3.161930312E1,-5.481000423E0,4.981050014E0,5.701950073E0
3.163840165E1,-5.167050362E0,5.248950481E0,5.475000381E0
3.165750010E1,-5.386950493E0,5.446050167E0,4.867050171E0
3.167659878E1,-5.527950287E0,5.455050468E0,4.531050205E0
3.169569729E1,-5.731950283E0,5.362050056E0,4.692000389E0
3.171479584E1,-6.055050373E0,5.082000256E0,4.692000389E0
3.173389432E1,-6.187050343E0,5.235000134E0,4.230000019E0
3.175299278E1,-6.193950176E0,5.488950253E0,3.361050129E0
3.177209147E1,-6.088950157E0,5.689950466E0,3.042000055E0
3.179118992E1,-6.000000477E0,5.860050201E0,3.052050114E0
3.181028847E1,-6.084000111E0,5.877000332E0,2.776050091E0
3.182938692E1,-6.225000381E0,5.809950352E0,2.733000040E0
3.184848563E1,-6.385950089E0,5.766000271E0,2.800050020E0
3.186758407E1,-6.421950340E0,5.785950184E0,2.482050180E0
3.188668254E1,-6.481050491E0,5.814000130E0,2.131950140E0
3.190578106E1,-6.586950302E0,5.850000381E0,1.740000129E0
3.192487949E1,-6.522000313E0,5.971950054E0,1.407000065E0
3.194397820E1,-6.511950493E0,6.063000202E0,1.761000037E0
3.196307664E1,-6.679950237E0,6.150000095E0,2.470050097E0
3.198217515E1,-6.979050159E0,6.364950180E0,2.805000067E0
3.200127360E1,-6.907950401E0,6.427050114E0,2.515050173E0
3.202037213E1,-6.823950291E0,6.379050255E0,1.713000059E0
3.203947081E1,-6.927000523E0,6.181050301E0,7.890000343E-1
3.205856931E1,-7.066050529E0,5.800050259E0,-1.600500047E-1
3.207766777E1,-7.084950447E0,5.544000149E0,-8.910000324E-1
3.209676626E1,-6.465000153E0,5.529000282E0,-1.252050042E0
3.211586481E1,-5.629050255E0,5.661000252E0,-1.611000061E0
3.213496328E1,-5.068950176E0,5.974950314E0,-2.229000092E0
3.215406198E1,-4.702050209E0,6.159000397E0,-2.983050108E0
3.217316050E1,-4.438950062E0,6.585000515E0,-3.226950169E0
3.219225898E1,-4.237950325E0,6.724050522E0,-2.398950100E0
3.221135746E1,-4.446000099E0,6.573000431E0,-1.200000048E0
3.223045617E1,-4.900950432E0,6.247950077E0,-3.090000153E-1
3.224955463E1,-5.458950043E0,5.941050053E0,2.805000171E-2
3.226865320E1,-5.611950397E0,6.114000320E0,-1.390500069E-1
3.228775165E1,-5.409000397E0,6.375000477E0,-1.800000072E-1
3.230685032E1,-5.314950466E0,6.268950462E0,7.800000161E-2
3.232594877E1,-5.337000370E0,6.126000404E0,4.180500209E-1
3.234504722E1,-5.437050343E0,6.151950359E0,1.339950085E0
3.236414580E1,-5.205000401E0,5.809950352E0,2.656950235E0
3.238324426E1,-5.089950085E0,5.728050232E0,3.289050102E0
3.240234297E1,-4.912950039E0,5.874000072E0,2.917950153E0
3.242144142E1,-4.599000454E0,5.923950195E0,3.157050133E0
3.244053997E1,-4.408050060E0,5.464950085E0,4.869000435E0
3.245963837E1,-4.984950066E0,4.842000008E0,6.568950176E0
3.247873683E1,-5.418000221E0,4.392000198E0,6.885000229E0
3.249783550E1,-5.290950298E0,4.335000038E0,6.279000282E0
3.251693396E1,-4.947000027E0,4.327050209E0,5.599050045E0
3.253603254E1,-4.920000076E0,3.994950294E0,6.769950390E0
3.255513100E1,-4.924950123E0,3.784050226E0,7.693950176E0
3.257422968E1,-4.611000061E0,3.874950171E0,6.946950436E0
3.259332811E1,-4.273950100E0,3.916050196E0,6.744000435E0
3.261242661E1,-3.991050243E0,3.841050148E0,7.747050285E0
3.263152512E1,-4.003050327E0,3.657000065E0,8.085000038E0
3.265062360E1,-3.996000290E0,3.559050083E0,7.678050518E0
3.266972230E1,-3.760950089E0,3.379050255E0,8.170949936E0
3.268882080E1,-3.541050196E0,3.262050152E0,8.982000351E0
3.270791928E1,-3.180000067E0,3.346050262E0,8.728950500E0
3.272701783E1,-2.449050188E0,3.540000200E0,7.696950436E0
3.274611634E1,-1.747950077E0,3.547050238E0,8.197050095E0
3.276521502E1,-2.073000193E0,3.271950245E0,1.008105087E1
3.278431349E1,-2.560050011E0,2.905050039E0,1.073295021E1
3.280341203E1,-2.197950125E0,2.910000086E0,9.591000557E0
3.282251050E1,-1.228050113E0,3.226050138E0,8.305050850E0
3.284160916E1,-7.110000253E-1,3.135000229E0,9.315000534E0
3.286070766E1,-6.370500326E-1,2.922000170E0,1.179600048E1
3.287980609E1,-1.219050050E0,2.473950148E0,1.211700058E1
3.289890459E1,-1.486950040E0,2.449950218E0,1.041195011E1
3.291800305E1,-6.079500318E-1,2.668050051E0,8.827050209E0
3.293710173E1,5.020500422E-1,2.817000151E0,8.407950401E0
3.295620019E1,8.130000234E-1,2.383050203E0,9.093000412E0
3.297529862E1,7.579500079E-1,1.854000092E0,1.055805016E1
3.299439716E1,7.050000429E-1,1.525950074E0,1.100295067E1
3.301349563E1,6.859500408E-1,1.375050068E0,1.008900070E1
3.303259434E1,1.138950109E0,1.564050078E0,8.647050858E0
3.305169280E1,2.032050133E0,1.690950036E0,8.383950233E0
3.307079133E1,2.614050150E0,1.524000049E0,1.002195072E1
3.308988997E1,2.199000120E0,1.054050088E0,1.207800102E1
3.310898847E1,1.486050129E0,7.840500474E-1,1.286100101E1
3.312808696E1,9.970500469E-1,8.389500380E-1,1.212795067E1
3.314718550E1,1.450050116E0,1.227000117E0,1.083795071E1
3.316628397E1,2.677950144E0,1.557000041E0,9.433050156E0
3.318538266E1,3.379950047E0,1.569000125E0,8.941950798E0
3.320448112E1,3.622050285E0,1.299000025E0,9.421050072E0
3.322357958E1,3.519000053E0,8.290500641E-1,9.856050491E0
3.324267812E1,3.307950258E0,4.060500264E-1,1.019595051E1
3.326177654E1,3.319950104E0,2.719500065E-1,1.045500088E1
3.328087521E1,3.700950146E0,3.120000064E-1,1.015605068E1
3.329997370E1,4.459950447E0,5.640000105E-1,9.865950584E0
3.331907224E1,4.657950401E0,6.240000129E-1,9.568950653E0
3.333817069E1,4.479000092E0,6.190500259E-1,9.279000282E0
3.335726913E1,4.579050064E0,6.469500065E-1,9.184050560E0
3.337636779E1,4.606050014E0,7.219500542E-1,8.929950714E0
3.339546623E1,5.025000095E0,7.189500332E-1,8.709000587E0
3.341456475E1,5.731050491E0,1.027950048E0,8.568000793E0
3.343366344E1,6.174000263E0,9.520500302E-1,8.761950493E0
3.345276192E1,5.946000099E0,6.379500031E-1,8.395950317E0
3.347186045E1,6.103950500E0,4.300500154E-1,8.037000656E0
3.349095895E1,5.908050060E0,3.070500195E-1,8.077050209E0
3.351005745E1,6.171000481E0,2.929500043E-1,8.362050056E0
3.352915614E1,6.508950233E0,3.840000033E-1,8.419950485E0
3.354825459E1,6.696000099E0,3.940500319E-1,8.167950630E0
3.356735302E1,6.646050453E0,2.740500271E-1,7.915050507E0
3.358645157E1,6.589950085E0,6.795000285E-2,7.771050453E0
3.360555005E1,6.669000149E0,-7.950000465E-3,8.038949966E0
3.362464877E1,6.763050556E0,-9.900000691E-2,8.731050491E0
3.364374726E1,6.757950306E0,-2.590500116E-1,9.235950470E0
3.366284580E1,6.649950504E0,-3.160500228E-1,8.853000641E0
3.368194426E1,6.732000351E0,-1.510500014E-1,8.323950768E0
3.370104296E1,6.976050377E0,3.705000132E-2,8.386050224E0
3.372014139E1,7.215000153E0,1.690500081E-1,8.932050705E0
3.373923991E1,7.191000462E0,1.519500017E-1,9.538050652E0
3.375833834E1,7.066950321E0,1.780500114E-1,9.954000473E0
3.377743704E1,6.922950268E0,1.639500111E-1,9.993000031E0
3.379653553E1,6.910950184E0,2.260500044E-1,1.000995064E1
3.381563407E1,6.847050190E0,5.400000140E-2,1.006500053E1
3.383473253E1,6.789000511E0,-9.105000645E-2,1.005495071E1
3.385383096E1,6.691050529E0,-1.990500093E-1,1.003305054E1
3.387292962E1,6.648000240E0,-2.400000095E-1,1.013595009E1
3.389202810E1,6.547050476E0,-3.310500085E-1,1.000695038E1
3.391112663E1,6.459000111E0,-2.230500132E-1,9.739050865E0
3.393022530E1,6.688950539E0,2.700000070E-2,9.667050362E0
3.394932379E1,6.835050106E0,3.220500052E-1,9.670050621E0
3.396842233E1,7.005000114E0,4.849500358E-1,9.468000412E0
3.398752081E1,6.976050377E0,5.160000324E-1,9.538050652E0
3.400661928E1,6.808050156E0,4.560000300E-1,9.804000854E0
3.402571797E1,6.010950089E0,3.310500085E-1,9.619050026E0
3.404481644E1,5.949000359E0,3.409500122E-1,9.547050476E0
3.406391490E1,5.896050453E0,5.230500102E-1,9.805950165E0
3.408301348E1,5.824050426E0,5.760000348E-1,1.039695072E1
3.410211196E1,5.635050297E0,5.590500236E-1,1.077795029E1
3.412121072E1,4.894950390E0,4.770000279E-1,1.053405094E1
3.414030919E1,4.689000130E0,5.779500008E-1,1.035405064E1
3.415940768E1,4.419000149E0,7.309500575E-1,1.038795090E1
3.417850634E1,4.098000050E0,7.909500599E-1,1.025100040E1
3.419760478E1,3.904050112E0,9.060000181E-1,1.049805069E1
3.421670325E1,3.411000252E0,8.580000401E-1,1.096500015E1
3.423580178E1,2.664000034E0,6.570000052E-1,1.114200020E1
3.425490026E1,1.996050119E0,6.139500141E-1,1.073700047E1
3.427399895E1,1.369050026E0,5.449500084E-1,1.075695038E1
3.429309750E1,9.730500579E-1,5.590500236E-1,1.055100060E1
3.431219591E1,9.690000415E-1,8.440500498E-1,9.847050667E0
3.433129455E1,1.006950021E0,1.299000025E0,9.121050835E0
3.435039299E1,4.990500212E-1,1.524000049E0,8.899050713E0
3.436949145E1,-2.680500150E-1,1.528950095E0,8.641950607E0
3.438858997E1,-8.400000334E-1,1.713000059E0,8.520000458E0
3.440768846E1,-8.880000710E-1,2.029050112E0,8.548950195E0
3.442678717E1,-9.120000601E-1,2.227950096E0,8.470050812E0
3.444588565E1,-1.152000070E0,2.458050013E0,8.149050713E0
3.446498416E1,-1.489050031E0,2.683050156E0,7.753950596E0
3.448408262E1,-1.674000025E0,2.905050039E0,7.558050156E0
3.450318130E1,-2.140950203E0,2.998950243E0,7.713000298E0
3.452227977E1,-2.718000174E0,2.866950035E0,8.389050484E0
3.454137829E1,-3.120000124E0,2.686950207E0,8.773950577E0
3.456047677E1,-3.535950184E0,2.685000181E0,7.906950474E0
3.457957543E1,-3.655950069E0,2.929050207E0,7.029000282E0
3.459867390E1,-3.571950197E0,3.382050276E0,6.823050499E0
3.461777243E1,-3.706050158E0,3.553950071E0,7.050000191E0
3.463687090E1,-4.282950401E0,3.580050230E0,7.111950397E0
3.465596958E1,-4.516050339E0,3.733950138E0,7.191000462E0
3.467506803E1,-4.669050217E0,3.999000072E0,7.134000301E0
3.469416662E1,-4.638000011E0,4.399050236E0,6.487950325E0
3.471326532E1,-4.702050209E0,4.857000351E0,5.877000332E0
3.473236379E1,-4.876950264E0,4.975950241E0,5.605950356E0
3.475146228E1,-5.113950253E0,4.869000435E0,5.404950142E0
3.477056085E1,-5.193000317E0,5.086050034E0,4.993950367E0
3.478965932E1,-5.454000473E0,5.158050060E0,5.025000095E0
3.480875803E1,-5.623950481E0,5.113050461E0,4.893000126E0
3.482785647E1,-5.418000221E0,5.053050041E0,4.648950100E0
3.484695501E1,-5.482950211E0,5.302050114E0,4.407000065E0
3.486605348E1,-5.943000317E0,5.248950481E0,4.198950291E0
3.488515217E1,-6.378000259E0,5.091000080E0,4.057050228E0
3.490425062E1,-6.414000511E0,5.131950378E0,4.336950302E0
3.492334915E1,-6.556050301E0,5.163000107E0,4.215000153E0
3.494244760E1,-6.477000237E0,5.287950039E0,3.861000299E0
3.496154627E1,-6.349950314E0,5.572950363E0,3.148050070E0
3.498064474E1,-6.241950512E0,5.872050285E0,2.797950029E0
3.499974329E1,-6.376050472E0,6.073050499E0,2.755050182E0
3.501884174E1,-6.532050133E0,6.027000427E0,2.961000204E0
3.503794046E1,-6.661050320E0,5.902950287E0,3.118950129E0
3.505703896E1,-6.721050262E0,5.886000156E0,3.253050089E0
3.507613749E1,-6.699000359E0,6.133050442E0,3.052050114E0
3.509523594E1,-6.783000469E0,6.336000443E0,2.604000092E0
3.511433461E1,-6.718050480E0,6.351000309E0,2.182950020E0
3.513343307E1,-6.574950218E0,6.358050346E0,1.813950062E0
3.515253157E1,-6.658950329E0,6.271950245E0,1.756050110E0
3.517163005E1,-6.808950424E0,6.190050125E0,1.701000094E0
3.519072873E1,-6.690000534E0,6.123000145E0,1.615050077E0
3.520982724E1,-6.331050396E0,6.070950508E0,1.206000090E0
3.522892568E1,-5.944950104E0,6.276000500E0,3.679500222E-1
3.524802414E1,-5.461050034E0,6.577950478E0,-9.070500135E-1
3.526712282E1,-5.032950401E0,6.796050549E0,-2.184000015E0
3.528622125E1,-5.068950176E0,6.727050304E0,-2.761050224E0
3.530531980E1,-5.167050362E0,6.355050087E0,-2.494950056E0
3.532441827E1,-5.260050297E0,6.235950470E0,-2.434950113E0
3.534351698E1,-5.179050446E0,6.286050320E0,-2.715000153E0
3.536261552E1,-4.887000084E0,6.445950508E0,-2.506950140E0
3.538171397E1,-4.591950417E0,6.336000443E0,-1.963050127E0
3.540081264E1,-4.819950104E0,6.126000404E0,-1.252050042E0
3.541991113E1,-5.458950043E0,5.917050362E0,-7.519500256E-1
3.543900968E1,-5.833050251E0,5.848050117E0,-3.660000265E-1
3.545810816E1,-5.880000114E0,5.635050297E0,3.495000303E-2
3.547720662E1,-5.727000237E0,5.472000122E0,-1.395000052E-2
3.549630532E1,-5.320050240E0,5.656050205E0,-6.799500585E-1
3.551540386E1,-4.911000252E0,5.980050087E0,-1.006049991E0
3.553450234E1,-4.789050102E0,5.917050362E0,2.190000117E-1
3.555360100E1,-5.121000290E0,5.448000431E0,2.179949999E0
3.557269947E1,-5.052000046E0,5.163000107E0,3.100050211E0
3.559179802E1,-4.822050095E0,5.275950432E0,2.688000202E0
3.561089652E1,-4.513050079E0,5.343000412E0,2.937000036E0
3.562999520E1,-4.741050243E0,4.900050163E0,4.543050289E0
3.564909366E1,-4.992000103E0,4.440000057E0,5.530050278E0
3.566819218E1,-4.525050163E0,4.711050034E0,4.371000290E0
3.568729061E1,-3.915000200E0,4.672049999E0,3.721950293E0
3.570638929E1,-4.039050102E0,4.111950397E0,6.720000267E0
3.572548776E1,-4.816950321E0,3.171000242E0,9.820050240E0
3.574458632E1,-5.176050186E0,3.039000034E0,9.873000145E0
3.576368476E1,-4.603950024E0,3.715050220E0,6.685950279E0
3.578278343E1,-3.181950092E0,4.231950283E0,5.548950195E0
3.580188194E1,-2.823000193E0,4.204950333E0,8.182950020E0
3.582098047E1,-3.319050074E0,3.709950209E0,1.086000061E1
3.584007890E1,-3.739950180E0,3.276000261E0,1.033500004E1
3.585917761E1,-2.803950071E0,3.825000286E0,7.630050182E0
3.587827615E1,-1.614000082E0,4.150050163E0,7.012050152E0
3.589737463E1,-1.171050072E0,3.942000151E0,1.027095032E1
3.591647332E1,-1.848000050E0,3.196950197E0,1.251405048E1
3.593557179E1,-2.839950085E0,2.734950066E0,1.198005104E1
3.595467027E1,-2.902050257E0,2.671050072E0,9.907050133E0
3.597376878E1,-1.846050143E0,2.998950243E0,9.069000244E0
3.599286724E1,-5.749500394E-1,3.298050165E0,9.966000557E0
3.601196597E1,-4.530000091E-1,3.202050209E0,1.072995090E1
3.603106449E1,-6.559500098E-1,2.764050245E0,1.099800014E1
3.605016294E1,-9.169500470E-1,2.479050159E0,1.051200008E1
3.606926165E1,-4.930500090E-1,2.400000095E0,9.804000854E0
3.608836008E1,1.800000109E-2,2.314050198E0,1.027305031E1
3.610745860E1,2.719500065E-1,2.218050003E0,1.103205013E1
3.612655708E1,5.310000181E-1,2.103000164E0,1.051500034E1
3.614565578E1,9.499500394E-1,2.236950159E0,9.243000031E0
3.616475423E1,1.656000137E0,2.395050049E0,8.401050568E0
3.618385266E1,2.287950039E0,2.350050211E0,7.873950481E0
3.620295146E1,2.728050232E0,2.023950100E0,8.247000694E0
3.622204992E1,2.803050041E0,1.689000130E0,9.073050499E0
3.624114846E1,3.193050146E0,1.435050011E0,9.343950272E0
3.626024691E1,3.370050192E0,1.366050124E0,9.652950287E0
3.627934539E1,3.246000051E0,1.099950075E0,1.021095085E1
3.629844410E1,3.016050100E0,8.650500178E-1,1.072095013E1
3.631754268E1,3.013050079E0,7.480500340E-1,1.058700085E1
3.633664118E1,3.789000273E0,8.959500194E-1,9.777000427E0
3.635573963E1,4.510050297E0,9.850500226E-1,9.502050400E0
3.637483830E1,4.752000332E0,7.219500542E-1,1.007205009E1
3.639393684E1,4.440000057E0,3.600000143E-1,1.085700035E1
3.641303533E1,4.195950031E0,5.805000290E-2,1.103895092E1
3.643213400E1,4.315950394E0,2.119500041E-1,1.047195053E1
3.645123245E1,4.696950436E0,4.339500070E-1,9.697950363E0
3.647033095E1,5.499000072E0,6.210000515E-1,9.138000488E0
3.648942942E1,6.447000504E0,4.819500148E-1,8.863050461E0
3.650852812E1,6.562050343E0,4.270500243E-1,8.584950447E0
3.652762656E1,6.294000149E0,1.420500129E-1,8.920050621E0
3.654672508E1,5.796000481E0,-4.095000029E-2,9.661950111E0
3.656582374E1,5.524950027E0,-1.900500059E-1,9.756000519E0
3.658492219E1,5.668950081E0,-1.390500069E-1,9.250950813E0
3.660402067E1,6.001050472E0,1.609500051E-1,8.652000427E0
3.662311924E1,6.588000298E0,4.060500264E-1,8.178000450E0
3.664221769E1,6.793950558E0,5.130000114E-1,7.723050594E0
3.666131643E1,6.775050163E0,5.250000358E-1,7.408950329E0
3.668041499E1,6.861000538E0,4.870500267E-1,7.570050240E0
3.669951350E1,6.717000484E0,2.520000041E-1,7.824000359E0
3.671861194E1,6.708000183E0,6.000000052E-3,8.282999992E0
3.673771058E1,6.862950325E0,6.000000052E-3,8.680950165E0
3.675680912E1,6.933000565E0,2.359500080E-1,8.772000313E0
3.677590758E1,7.552950382E0,2.929500043E-1,8.689949989E0
3.679500628E1,7.819050312E0,3.700500131E-1,8.512949944E0
3.681410474E1,7.747050285E0,3.100500107E-1,8.523000717E0
3.683320329E1,7.716000557E0,3.360000253E-1,8.772000313E0
3.685230177E1,7.977000237E0,3.529500067E-1,8.989950180E0
3.687140046E1,7.789950371E0,1.879500151E-1,9.439949989E0
3.689049889E1,7.500000477E0,-1.630500108E-1,1.003800011E1
3.690959742E1,7.191000462E0,-4.939500093E-1,1.064595032E1
3.692869610E1,6.832050323E0,-7.519500256E-1,1.090005016E1
3.694779459E1,6.700950146E0,-8.650500178E-1,1.041195011E1
3.696689308E1,6.592950344E0,-7.069500089E-1,9.913950920E0
3.698599163E1,6.496950150E0,-4.480500221E-1,1.000005054E1
3.700509034E1,6.490050316E0,-2.040000111E-1,1.025100040E1
3.702418880E1,6.792000294E0,-4.950000439E-3,1.018395042E1
3.704328735E1,6.964050293E0,-1.695000008E-2,1.018005085E1
3.706238579E1,6.877950191E0,-2.970000207E-1,1.021995068E1
3.708148426E1,6.595050335E0,-4.549500346E-1,9.946950912E0
3.710058304E1,6.399000168E0,-5.149500370E-1,9.661950111E0
3.711968148E1,6.010950089E0,-5.530500412E-1,9.847050667E0
3.713877993E1,5.661000252E0,-5.940000415E-1,1.015605068E1
3.715787861E1,5.491050243E0,-4.939500093E-1,1.042395020E1
3.717697712E1,5.319000244E0,-3.330000043E-1,1.050000095E1
3.719607558E1,5.083950043E0,-2.020500153E-1,1.037295055E1
3.721517403E1,4.881000042E0,-1.005000062E-2,1.015605068E1
3.723427271E1,4.396950245E0,4.695000127E-2,1.027995014E1
3.725337128E1,3.958950281E0,3.195000067E-2,1.034205055E1
3.727246972E1,3.351000071E0,1.095000096E-2,1.027305031E1
3.729156841E1,2.829000235E0,1.039500013E-1,1.037595081E1
3.731066683E1,2.427000046E0,3.510000110E-1,1.041705036E1
3.732976537E1,2.404950142E0,7.720500231E-1,9.877950668E0
3.734886408E1,2.295000076E0,1.224000096E0,9.255000114E0
3.736796254E1,1.881000042E0,1.483050108E0,9.025050163E0
3.738706103E1,1.704000115E0,1.749000072E0,8.857950211E0
3.740615958E1,1.026000023E0,1.939950109E0,8.788050652E0
3.742525803E1,2.220000178E-1,1.948050141E0,9.114000320E0
3.744435673E1,-4.020000100E-1,1.927950144E0,8.917950630E0
3.746345529E1,-6.229500175E-1,2.151000023E0,8.307000160E0
3.748255376E1,-6.630000472E-1,2.512950182E0,7.597950459E0
3.750165247E1,-1.039050102E0,2.604000092E0,7.608000278E0
3.752075098E1,-1.741050124E0,2.520000219E0,8.386050224E0
3.753984951E1,-2.248050213E0,2.404950142E0,8.515950203E0
3.755894797E1,-2.665050030E0,2.565000057E0,8.080050468E0
3.757804663E1,-2.859000206E0,2.884050131E0,7.831050396E0
3.759714512E1,-3.022050142E0,3.099000216E0,7.870950222E0
3.761624365E1,-3.079050064E0,3.226050138E0,7.753950596E0
3.763534212E1,-3.429000139E0,3.367050171E0,7.302000523E0
3.765444081E1,-3.802050114E0,3.616050243E0,7.282050133E0
3.767353936E1,-4.006050110E0,3.796050072E0,7.423950195E0
3.769263781E1,-4.321950436E0,3.762000084E0,7.503000259E0
3.771173650E1,-4.792950153E0,3.846000195E0,7.615050316E0
3.773083498E1,-4.786050320E0,4.078050137E0,7.227000237E0
3.774993350E1,-4.621050358E0,4.423050404E0,6.801000118E0
3.776903198E1,-4.662000179E0,4.629000187E0,6.376950264E0
3.778813066E1,-4.669050217E0,4.780050278E0,6.334050179E0
3.780722926E1,-4.935000420E0,4.822950363E0,5.812050343E0
3.782632769E1,-5.299050331E0,4.809000015E0,5.487000465E0
3.784542615E1,-5.683950424E0,4.644000053E0,5.620950222E0
3.786452484E1,-5.713050365E0,4.536000252E0,5.701950073E0
3.788362339E1,-5.575950146E0,4.822950363E0,5.323950291E0
3.790272184E1,-5.872950077E0,5.026950359E0,4.723050117E0
3.792182050E1,-5.739000320E0,5.113050461E0,4.699050426E0
3.794091904E1,-5.626950264E0,5.328000069E0,4.588950157E0
3.796001749E1,-6.043050289E0,5.290050030E0,4.363950253E0
3.797911613E1,-6.438000202E0,5.059950352E0,4.618050098E0
3.799821457E1,-6.667950153E0,5.086050034E0,4.515000343E0
3.801731313E1,-6.916950226E0,5.086050034E0,4.213050365E0
3.803641156E1,-6.831000328E0,5.071950436E0,3.946950197E0
3.805551027E1,-6.643950462E0,5.212950230E0,3.226950169E0
3.807460869E1,-6.481050491E0,5.512950420E0,2.833950043E0
3.809370722E1,-6.262950420E0,5.743050098E0,2.692950010E0
3.811280567E1,-6.319050312E0,5.758950233E0,2.559000015E0
3.813190438E1,-6.465000153E0,5.776050091E0,2.331000090E0
3.815100296E1,-6.547950268E0,5.749950409E0,2.310000181E0
3.817010141E1,-6.618000507E0,5.620050430E0,2.155950069E0
3.818920011E1,-6.771000385E0,5.553000450E0,1.675050020E0
3.820829864E1,-7.033950329E0,5.623050213E0,1.543050051E0
3.822739718E1,-7.213950157E0,5.605950356E0,1.879050136E0
3.824649564E1,-7.269000530E0,5.596050262E0,2.250000000E0
3.826559431E1,-7.350000381E0,5.592000484E0,2.185050011E0
3.828469285E1,-7.485000134E0,5.605950356E0,2.070000172E0
3.830379132E1,-7.518000126E0,5.698950291E0,1.893000126E0
3.832289000E1,-7.384050369E0,5.616000175E0,1.729950070E0
3.834198848E1,-7.549050331E0,5.403000355E0,1.672950029E0
3.836108701E1,-7.840950489E0,5.304000378E0,1.570050120E0
3.838018544E1,-7.687950134E0,5.356950283E0,1.218000054E0
3.839928413E1,-7.317000389E0,5.620050430E0,6.220500469E-1
3.841838258E1,-6.757050514E0,6.090000153E0,-1.560000032E-1
3.843748109E1,-5.715000153E0,6.619050503E0,-1.164000034E0
3.845657955E1,-5.029950142E0,6.955950260E0,-1.891050100E0
3.847567825E1,-5.109000206E0,6.858000278E0,-2.314950228E0
3.849477678E1,-5.374950409E0,6.520950317E0,-2.500050068E0
3.851387527E1,-5.524050236E0,6.291000366E0,-2.559000015E0
3.853297397E1,-5.569050312E0,6.208950520E0,-2.538000107E0
3.855207251E1,-5.440050125E0,6.327000141E0,-2.241000175E0
3.857117094E1,-5.521050453E0,6.372000217E0,-1.687950134E0
3.859026962E1,-5.752950191E0,6.133050442E0,-7.830000520E-1
3.860936809E1,-6.115050316E0,6.039000511E0,-7.905000448E-2
3.862846663E1,-6.382950306E0,5.994000435E0,8.805000782E-2
3.864756510E1,-6.319050312E0,5.983950138E0,-9.105000645E-2
3.866666378E1,-6.121950150E0,5.994000435E0,-1.960500032E-1
3.868576233E1,-6.172050476E0,6.102000237E0,1.830000132E-1
3.870486079E1,-5.967000484E0,5.932050228E0,1.186950088E0
3.872395930E1,-5.923050404E0,6.085050106E0,1.558050036E0
3.874305797E1,-5.767950058E0,6.130050182E0,1.165050030E0
3.876215652E1,-5.679000378E0,6.115950108E0,1.713000059E0
3.878125501E1,-5.502000332E0,6.034950256E0,3.229050159E0
3.880035372E1,-5.779950142E0,5.889000416E0,4.426050186E0
3.881945224E1,-5.839950085E0,5.770950317E0,4.411950111E0
3.883855066E1,-5.788950443E0,5.629950047E0,3.756000280E0
3.885764934E1,-5.746050358E0,5.413950443E0,3.861000299E0
3.887674781E1,-5.586000443E0,5.290050030E0,4.699050426E0
3.889584635E1,-5.851950169E0,5.062950134E0,5.676000118E0
3.891494482E1,-5.998050213E0,4.828050137E0,5.994000435E0
3.893404348E1,-6.037950516E0,4.459050179E0,6.022950172E0
3.895314191E1,-5.923050404E0,4.396950245E0,5.500950336E0
3.897224044E1,-5.053950310E0,4.750950336E0,5.125050068E0
3.899133886E1,-4.554000378E0,4.840050220E0,6.295950413E0
3.901043761E1,-4.912950039E0,4.440000057E0,7.672950268E0
3.902953611E1,-5.320050240E0,4.143000126E0,7.705950260E0
3.904863460E1,-5.131050110E0,4.231950283E0,6.399000168E0
3.906773331E1,-4.318950176E0,4.552950382E0,5.808000088E0
3.908683178E1,-3.880950212E0,4.603050232E0,7.242000580E0
3.910593030E1,-3.840000153E0,4.347000122E0,8.149050713E0
3.912502900E1,-3.859950066E0,4.167000294E0,7.452000141E0
3.914412745E1,-3.625050068E0,4.102050304E0,6.277050495E0
3.916322598E1,-3.235050201E0,3.862950087E0,6.804000378E0
3.918232470E1,-2.962050200E0,3.729000092E0,8.305050850E0
3.920142318E1,-2.569050074E0,3.697950125E0,8.089050293E0
3.922052173E1,-2.437050104E0,3.589950085E0,7.639050484E0
3.923962043E1,-2.502000093E0,3.211950064E0,8.287950516E0
3.925871890E1,-2.485050201E0,3.067950249E0,8.989950180E0
3.927781737E1,-1.942050099E0,3.027000189E0,8.824049950E0
3.929691592E1,-1.297950029E0,3.135000229E0,9.001950264E0
3.931601440E1,-1.039050102E0,2.959950209E0,9.415950775E0
3.933511312E1,-1.386000037E0,2.752050161E0,1.035900021E1
3.935421167E1,-1.542000055E0,2.647050142E0,1.067295074E1
3.937331015E1,-1.188000083E0,2.520000219E0,9.901950836E0
3.939240886E1,-5.530500412E-1,2.637000084E0,9.990000725E0
3.941150732E1,-3.589500189E-1,2.517000198E0,1.062195015E1
3.943060583E1,-5.440500379E-1,2.280000210E0,1.070895004E1
3.944970454E1,3.000000119E-2,2.424000025E0,9.751049995E0
3.946880300E1,1.030950069E0,2.508000135E0,9.282000542E0
3.948790156E1,1.198950052E0,2.452950001E0,1.048605061E1
3.950700002E1,8.200500607E-1,2.119950056E0,1.135995007E1
3.952609869E1,8.130000234E-1,2.095950127E0,1.082805061E1
3.954519725E1,1.170000076E0,2.242050171E0,9.861000061E0
3.956429565E1,1.464000106E0,2.290050030E0,9.732000351E0
3.958339432E1,1.789950132E0,2.282999992E0,9.784050941E0
3.960249280E1,2.218050003E0,2.292000055E0,9.567000389E0
3.962159136E1,2.560950041E0,2.212949991E0,9.430050850E0
3.964068982E1,2.545950174E0,1.954950094E0,9.303000450E0
3.965978852E1,2.596950054E0,1.684050083E0,9.070950508E0
3.967888703E1,2.841000080E0,1.452000022E0,9.162000656E0
3.969798548E1,3.283950090E0,1.224000096E0,9.271950722E0
3.971708416E1,3.736050129E0,9.780000448E-1,9.169050217E0
3.973618259E1,3.976050138E0,7.480500340E-1,8.844000816E0
3.975528112E1,4.231950283E0,6.139500141E-1,9.319950104E0
3.977437955E1,4.438050270E0,4.849500358E-1,9.880050659E0
3.979347826E1,4.500000000E0,3.070500195E-1,9.811050415E0
3.981257682E1,4.495050430E0,1.230000034E-1,9.243000031E0
3.983167524E1,4.708950043E0,7.950000465E-3,9.387000084E0
3.985077387E1,4.807050228E0,1.369500011E-1,9.705000877E0
3.986987234E1,4.972050190E0,2.719500065E-1,9.430050850E0
3.988897088E1,5.344950199E0,5.419500470E-1,9.004050255E0
3.990806958E1,5.908050060E0,3.310500085E-1,9.106950760E0
3.992716805E1,5.841000080E0,6.300000101E-2,8.853000641E0
3.994626660E1,6.025050163E0,-1.060500070E-1,8.559000015E0
3.996536508E1,6.142950058E0,-1.339500099E-1,8.887050629E0
3.998446375E1,6.559050083E0,8.205000311E-2,9.169050217E0
4.000356234E1,6.873000145E0,1.039500013E-1,8.938950539E0
