"Time (s)","Gyroscope x (rad/s)","Gyroscope y (rad/s)","Gyroscope z (rad/s)"
3.033225000E-2,-8.164749742E-1,-6.481750011E-1,-3.982000053E-1
5.420412000E-2,-1.002237439E0,-1.068512440E0,-5.924875140E-1
5.897890500E-2,-1.013237476E0,-1.096562505E0,-5.985375047E-1
6.375344500E-2,-1.016950011E0,-1.100275040E0,-6.034874916E-1
8.375344500E-2,-1.014474988E0,-9.512249827E-1,-5.912500024E-1
1.037534450E-1,-1.055999994E0,-7.154124975E-1,-5.960624814E-1
1.237534450E-1,-1.054762483E0,-4.478375018E-1,-6.705874801E-1
1.437534450E-1,-9.631875157E-1,-3.392125070E-1,-7.732999921E-1
1.637534450E-1,-8.861874938E-1,-3.037374914E-1,-8.808249831E-1
1.837534450E-1,-7.628499866E-1,-1.399749964E-1,-9.821624756E-1
2.037534450E-1,-5.550875068E-1,-4.368374944E-1,-8.306375146E-1
2.237534450E-1,-4.120875001E-1,-7.129374743E-1,-6.144874692E-1
2.437534450E-1,-3.937999904E-1,-8.241750002E-1,-4.665375054E-1
2.637534450E-1,-5.135625005E-1,-9.011750221E-1,-4.409624934E-1
2.837534450E-1,-5.355625153E-1,-6.348375082E-1,-7.145875096E-1
3.037534450E-1,-4.842749834E-1,-6.799374819E-1,-9.858750105E-1
3.237534450E-1,-5.403749943E-1,-8.571749926E-1,-1.008975029E0
3.437534450E-1,-5.941374898E-1,-9.597499967E-1,-8.881124854E-1
3.637534450E-1,-5.820375085E-1,-1.050225019E0,-5.777750015E-1
3.837534450E-1,-5.587999821E-1,-1.570662498E0,6.187499966E-3
4.037534450E-1,-2.679874897E-1,-1.569424987E0,3.312374949E-1
4.237534450E-1,-1.274625063E-1,-1.250562549E0,5.766749978E-1
4.437534450E-1,1.864500046E-1,9.778999686E-1,7.123875022E-1
4.637534450E-1,2.817375064E-1,-4.345000088E-1,6.732000113E-1
4.837534450E-1,5.187875032E-1,1.836999953E-1,6.634374857E-1
5.037534450E-1,8.131750226E-1,7.261375189E-1,4.680500031E-1
5.237534450E-1,1.089275002E0,1.054762483E0,2.969999909E-1
5.437534450E-1,1.260324955E0,9.876624942E-1,3.727625012E-1
5.637534450E-1,1.189512491E0,6.162750125E-1,7.136250138E-1
5.837534450E-1,1.000174999E0,1.751749963E-1,9.481999874E-1
6.037534450E-1,7.875999808E-1,-9.968750179E-2,8.406749964E-1
6.237534450E-1,5.700749755E-1,1.649999991E-3,6.696249843E-1
6.437534450E-1,3.990249932E-1,5.990874767E-1,5.010499954E-1
6.637534450E-1,2.243999988E-1,1.046237469E0,3.763374984E-1
6.837534450E-1,1.816374958E-1,1.373625040E0,5.499999970E-2
7.037534450E-1,3.574999869E-1,1.283287525E0,-4.959625006E-1
7.237534450E-1,4.930749834E-1,9.387124777E-1,-4.531999826E-1
7.437534450E-1,5.468375087E-1,4.476999938E-1,-3.834874928E-1
7.637534450E-1,4.699749947E-1,1.263625026E-1,-5.032500029E-1
7.837534450E-1,1.974499971E-1,-1.864500046E-1,-6.242499948E-1
8.037534450E-1,-4.564999789E-2,-5.053125024E-1,-7.145875096E-1
8.237534450E-1,-2.679874897E-1,-6.494125128E-1,-6.193000078E-1
8.437534450E-1,-4.072749913E-1,-1.546874940E-1,-2.051499933E-1
8.637534450E-1,-4.622749984E-1,-4.783625007E-1,-3.822500110E-1
8.837534450E-1,-3.449875116E-1,-7.862250209E-1,-4.079625010E-1
9.037534450E-1,-5.270375013E-1,-1.183325052E0,-3.504875004E-1
9.237534450E-1,-5.721374750E-1,-1.204087496E0,-2.539624870E-1
9.437534450E-1,-5.330874920E-1,-1.238325000E0,-2.906749845E-1
9.637534450E-1,-4.573250115E-1,-1.518137455E0,-2.211000025E-1
9.837534450E-1,-5.330874920E-1,-1.615900040E0,-1.684374958E-1
1.003753445E0,-9.887624979E-1,-1.217562437E0,-1.819124967E-1
1.023753445E0,-1.175762534E0,-1.089275002E0,-1.025749967E-1
1.043753445E0,-1.101237535E0,-9.964625239E-1,-1.038125008E-1
1.063753445E0,-9.814749956E-1,-9.329375029E-1,-9.157499671E-2
1.083753445E0,-7.799000144E-1,-8.877000213E-1,-2.320999950E-1
1.103753445E0,-6.210874915E-1,-1.248087525E0,-5.117750168E-1
1.123753445E0,-4.683249891E-1,-1.520475030E0,-6.462500095E-1
1.143753445E0,-4.780874848E-1,-1.651237488E0,-5.997750163E-1
1.163753445E0,-6.638500094E-1,-1.547425032E0,-5.252500176E-1
1.183753445E0,-8.471375108E-1,-1.329900026E0,-3.407250047E-1
1.203753445E0,-9.924749732E-1,-1.185799956E0,-1.843875051E-1
1.223753445E0,-1.128049970E0,-1.381325006E0,-1.704999991E-2
1.243753445E0,-1.011999965E0,-1.298137546E0,-1.208624989E-1
1.263753445E0,-7.126625180E-1,-1.105224967E0,-3.871999979E-1
1.283753445E0,-7.053750157E-1,-1.161324978E0,-4.164874852E-1
1.303753445E0,-8.886625171E-1,-9.572749734E-1,-2.723875046E-1
1.323753445E0,-1.035237551E0,-9.659374952E-1,-2.991999984E-1
1.343753445E0,-8.702374697E-1,-6.580749750E-1,-1.391499937E-1
1.363753445E0,-6.686624885E-1,-5.713124871E-1,-1.648624986E-1
1.383753445E0,-5.135625005E-1,-7.398874760E-1,-2.418625057E-1
1.403753445E0,-4.133250117E-1,-1.072224975E0,-2.429624945E-1
1.423753445E0,-4.976125062E-1,-1.034274936E0,-2.869625092E-1
1.443753445E0,-8.751875162E-1,-1.050225019E0,-4.372499883E-1
1.463753445E0,-1.284387469E0,-1.079512477E0,-4.812499881E-1
1.483753445E0,-1.448150039E0,-8.619874716E-1,-3.969624937E-1
1.503753445E0,-1.139050007E0,-6.176499724E-1,-2.466749996E-1
1.523753445E0,-5.148000121E-1,-6.078875065E-1,-1.123374999E-1
1.543753445E0,5.692499876E-2,-8.058875203E-1,-4.138749838E-2
1.563753445E0,3.232625127E-1,-1.183325052E0,-7.287499961E-3
1.583753445E0,1.999250054E-1,-1.384899974E0,6.187499966E-3
1.603753445E0,-1.189374998E-1,-1.453374982E0,2.571249940E-2
1.623753445E0,-4.243249893E-1,-1.392325044E0,3.795000166E-2
1.643753445E0,-5.953750014E-1,-1.348325014E0,7.947500050E-2
1.663753445E0,-5.403749943E-1,-1.201612473E0,9.171249717E-2
1.683753445E0,-3.645125031E-1,-1.128324986E0,6.723749638E-2
1.703753445E0,-2.459875047E-1,-1.009799957E0,4.523750022E-2
1.723753445E0,-2.289374918E-1,-9.267500043E-1,1.113750041E-2
1.743753445E0,-3.290374875E-1,-8.436999917E-1,-1.209999993E-2
1.763753445E0,-4.487999976E-1,-6.213625073E-1,-2.557500079E-2
1.783753445E0,-4.305124879E-1,-4.870249927E-1,2.089999989E-2
1.803753445E0,-3.852750063E-1,-3.623124957E-1,2.942499891E-2
1.823753445E0,-3.022249937E-1,-3.244999945E-1,2.571249940E-2
1.843753445E0,-2.167000026E-1,-3.073124886E-1,-1.209999993E-2
1.863753445E0,-1.775124967E-1,-2.524499893E-1,9.899999946E-3
1.883753445E0,-1.434125006E-1,-1.351625025E-1,2.447500080E-2
1.903753445E0,-1.054624990E-1,-1.924999990E-3,1.718750037E-2
1.923753445E0,-4.812499881E-2,2.179374993E-1,4.949999973E-3
1.943753445E0,1.182499994E-2,4.415124953E-1,8.662499487E-3
1.963753445E0,6.682500243E-2,5.868499875E-1,-1.704999991E-2
1.983753445E0,9.239999950E-2,7.775624990E-1,-9.638749808E-2
2.003753445E0,1.009249985E-1,1.027950048E0,-1.196250021E-1
2.023753445E0,1.436875015E-1,1.256474972E0,-1.220999956E-1
2.043753445E0,1.729750037E-1,1.344337463E0,-2.051499933E-1
2.063753445E0,1.571625024E-1,1.409099936E0,-2.954874933E-1
2.083753445E0,1.632124931E-1,1.613150001E0,-3.139125109E-1
2.103753445E0,1.816374958E-1,1.714487433E0,-3.236750066E-1
2.123753445E0,2.157374918E-1,1.866012454E0,-2.991999984E-1
2.143753445E0,3.562625051E-1,2.075012445E0,-1.941500008E-1
2.163753445E0,4.907374978E-1,2.083537579E0,-2.099625021E-1
2.183753445E0,6.201249957E-1,2.166587591E0,-2.637250125E-1
2.203753445E0,7.203624845E-1,2.282637596E0,-1.513874978E-1
2.223753445E0,7.533624768E-1,2.618550062E0,-2.063875049E-1
2.243753445E0,6.067875028E-1,2.700500011E0,-1.061500013E-1
2.263753445E0,7.008374929E-1,3.064599991E0,3.437500075E-2
2.283753445E0,1.062462449E0,3.405324936E0,1.699499935E-1
2.303753445E0,1.294562459E0,3.114650011E0,1.112374961E-1
2.323753445E0,1.101512551E0,2.803075075E0,5.747500062E-2
2.343753445E0,8.156499863E-1,2.832362413E0,1.088999957E-1
2.363753445E0,9.426999688E-1,3.343037367E0,5.779125094E-1
2.383753445E0,1.295799971E0,3.365037441E0,8.626750112E-1
2.403753445E0,1.457087517E0,2.815312386E0,6.183375120E-1
2.423753445E0,1.336087465E0,2.537975073E0,5.181000233E-1
2.443753445E0,1.172462463E0,2.501262426E0,5.108125210E-1
2.463753445E0,1.144274950E0,2.376687527E0,5.168625116E-1
2.483753445E0,1.162562490E0,2.172637463E0,3.225750029E-1
2.503753445E0,1.276275039E0,2.203162432E0,4.093374908E-1
2.523753445E0,1.273800015E0,1.901487470E0,3.275249898E-1
2.543753445E0,9.121749997E-1,1.649862528E0,5.252499878E-2
2.563753445E0,5.090249777E-1,1.888012528E0,-6.586249918E-2
2.583753445E0,3.770250082E-1,2.061537504E0,-3.052499890E-2
2.603753445E0,4.052124918E-1,2.166587591E0,2.323750034E-2
2.623753445E0,4.992625117E-1,1.610674977E0,-1.183874980E-1
2.643753445E0,4.687374830E-1,1.478812456E0,-1.453374922E-1
2.663753445E0,4.833124876E-1,1.710912466E0,-1.828750037E-2
2.683753445E0,6.568375230E-1,1.817199945E0,2.272875011E-1
2.703753445E0,8.388875127E-1,1.501912475E0,2.004749924E-1
2.723753445E0,6.703125238E-1,1.024237514E0,-4.276249930E-2
2.743753445E0,4.076874852E-1,1.192950010E0,-2.406249940E-1
2.763753445E0,2.341624945E-1,1.554574966E0,-1.025749967E-1
2.783753445E0,3.099249899E-1,1.539862514E0,-2.337499987E-3
2.803753445E0,5.273125172E-1,1.220999956E0,2.571249940E-2
2.823753445E0,6.360750198E-1,9.143750072E-1,-1.237499993E-3
2.843753445E0,5.444999933E-1,1.243000031E0,-7.287499961E-3
2.863753445E0,6.385499835E-1,1.497099996E0,1.979999989E-1
2.883753445E0,9.158874750E-1,1.385862470E0,2.432374954E-1
2.903753445E0,9.964625239E-1,9.668999910E-1,1.795749962E-1
2.923753445E0,8.743624687E-1,9.277125001E-1,1.087625027E-1
2.943753445E0,5.542625189E-1,1.120762467E0,1.515250057E-1
2.963753445E0,5.260750055E-1,1.302812457E0,1.209999993E-1
2.983753445E0,7.155500054E-1,1.396862507E0,1.735250056E-1
3.003753445E0,8.718875051E-1,1.250287533E0,1.295250058E-1
3.023753445E0,7.693125010E-1,1.057237506E0,6.242499873E-2
3.043753445E0,4.955500066E-1,8.788999915E-1,-1.538625062E-1
3.063753445E0,2.389750034E-1,8.238999844E-1,-2.186249942E-1
3.083753445E0,7.658749819E-2,8.129000068E-1,-1.783374995E-1
3.103753445E0,1.754499972E-1,7.750874758E-1,-1.123374999E-1
3.123753445E0,2.879250050E-1,5.868499875E-1,-1.086250022E-1
3.143753445E0,3.379749954E-1,4.684624970E-1,-9.033749998E-2
3.163753445E0,3.319250047E-1,4.085125029E-1,-7.562500238E-2
3.183753445E0,2.316875011E-1,3.669874966E-1,-6.586249918E-2
3.203753445E0,8.992499858E-2,3.217499852E-1,-4.509999976E-2
3.223753445E0,-7.699999958E-3,2.179374993E-1,2.474999987E-3
3.243753445E0,-3.217500076E-2,5.541250110E-2,1.124750003E-1
3.263753445E0,1.254000068E-1,-1.314499974E-1,2.822875082E-1
3.283753445E0,2.499749959E-1,-3.415499926E-1,3.202374876E-1
3.303753445E0,2.219250053E-1,-5.200250149E-1,2.382874936E-1
3.323753445E0,4.592499882E-2,-6.298875213E-1,9.295000136E-2
3.343753445E0,-2.532750070E-1,-8.399875164E-1,-1.086250022E-1
3.363753445E0,-7.688999772E-1,-1.143037438E0,-3.359124959E-1
3.383753445E0,-9.557625055E-1,-1.327562451E0,-3.542000055E-1
3.403753445E0,-8.384749889E-1,-1.409374952E0,-1.623875052E-1
3.423753445E0,-6.393749714E-1,-1.503425002E0,1.113750041E-2
3.443753445E0,-4.525125027E-1,-1.563237548E0,1.344749928E-1
3.463753445E0,-3.180375099E-1,-1.664712548E0,1.577125043E-1
3.483753445E0,-2.729375064E-1,-1.777050018E0,9.418749809E-2
3.503753445E0,-4.427500069E-1,-1.844287515E0,-7.315000147E-2
3.523753445E0,-8.446624875E-1,-1.564474940E0,-2.271499932E-1
3.543753445E0,-1.069474936E0,-1.229799986E0,-2.773374915E-1
3.563753445E0,-1.274624944E0,-1.532712460E0,-5.472499728E-1
3.583753445E0,-1.191575050E0,-1.938337445E0,-6.462500095E-1
3.603753445E0,-7.163749933E-1,-2.216912508E0,-6.902499795E-1
3.623753445E0,-8.971874714E-1,-2.176625013E0,-7.255874872E-1
3.643753445E0,-1.319862485E0,-1.854050040E0,-5.949624777E-1
3.663753445E0,-9.985250235E-1,-1.920050025E0,-4.141499996E-1
3.683753445E0,-4.500375092E-1,-2.434437513E0,-4.079625010E-1
3.703753445E0,-5.623750091E-1,-2.374487400E0,-3.921499848E-1
3.723753445E0,-4.890874922E-1,-2.047100067E0,-1.490499973E-1
3.743753445E0,-2.300374955E-1,-2.185149908E0,-8.910000324E-2
3.763753445E0,-4.450874925E-1,-2.176625013E0,-1.831499934E-1
3.783753445E0,-8.336625099E-1,-1.780762434E0,-2.516250014E-1
3.803753445E0,-4.573250115E-1,-1.736762524E0,-8.552499861E-2
3.823753445E0,1.241625026E-1,-2.082575083E0,4.276249930E-2
3.843753445E0,-2.422749996E-1,-2.441725016E0,-2.919124961E-1
3.863753445E0,-1.324812531E0,-1.931049943E0,-5.387250185E-1
3.883753445E0,-1.398100019E0,-1.026987553E0,-4.446749985E-1
3.903753445E0,-1.104125008E-1,-1.196799994E0,-1.343374997E-1
3.923753445E0,4.002625048E-1,-2.011625051E0,-4.399999976E-2
3.943753445E0,-5.636125207E-1,-2.257200003E0,-1.611499935E-1
3.963753445E0,-1.474962473E0,-1.634187460E0,-3.286249936E-1
3.983753445E0,-8.336625099E-1,-1.067275047E0,-1.918125004E-1
4.003753445E0,2.939749956E-1,-1.500949979E0,8.195000142E-2
4.023753445E0,4.247374833E-1,-2.152149916E0,6.228749827E-2
4.043753445E0,-4.952749908E-1,-1.920050025E0,-1.575749964E-1
4.063753445E0,-1.126812458E0,-1.233374953E0,-2.821500003E-1
4.083753445E0,-7.138999701E-1,-9.267500043E-1,-1.856250018E-1
4.103753445E0,2.341624945E-1,-1.487612486E0,-6.462500244E-2
4.123753445E0,-3.464999795E-2,-1.742949963E0,-1.331000030E-1
4.143753445E0,-7.249000072E-1,-1.439900041E0,-1.623875052E-1
4.163753445E0,-7.616124749E-1,-9.512249827E-1,-1.733874977E-1
4.183753445E0,-2.215124965E-1,-9.719874859E-1,-4.881250113E-2
4.203753445E0,2.402125001E-1,-1.522949934E0,2.474999987E-3
4.223753445E0,-1.226499975E-1,-1.692762494E0,-6.104999781E-2
4.243753445E0,-6.210874915E-1,-1.621950030E0,-1.991000026E-1
4.263753445E0,-9.350000024E-1,-1.371425033E0,-3.554374874E-1
4.283753445E0,-8.262374997E-1,-1.061224937E0,-2.809124887E-1
4.303753445E0,-1.544124931E-1,-1.180850029E0,-1.061500013E-1
4.323753445E0,1.742125005E-1,-1.456949949E0,-1.086250022E-1
4.343753445E0,-1.067000031E-1,-1.496137500E0,-1.783374995E-1
4.363753445E0,-5.880874991E-1,-1.240800023E0,-2.186249942E-1
4.383753445E0,-5.721374750E-1,-9.549375176E-1,-1.281500012E-1
4.403753445E0,-1.116499975E-1,-1.259087443E0,-4.152499884E-2
4.423753445E0,-2.364999987E-2,-1.631712437E0,-1.721500009E-1
4.443753445E0,-4.988499880E-1,-1.310374975E0,-2.039124966E-1
4.463753445E0,-6.381375194E-1,-9.279875159E-1,-1.135749966E-1
4.483753445E0,-3.107500076E-1,-9.341750145E-1,-9.281250089E-2
4.503753445E0,-4.193750024E-2,-1.195562482E0,-5.857500061E-2
4.523753445E0,-2.704625130E-1,-1.277374983E0,-1.086250022E-1
4.543753445E0,-5.343250036E-1,-1.072224975E0,-8.786249906E-2
4.563753445E0,-4.817999899E-1,-9.646999836E-1,-6.228749827E-2
4.583753445E0,-2.081750035E-1,-1.128324986E0,-2.681249939E-2
4.603753445E0,-1.201749966E-1,-1.270087481E0,-8.428750187E-2
4.623753445E0,-3.572250009E-1,-1.066037536E0,-1.135749966E-1
4.643753445E0,-3.095124960E-1,-7.544624805E-1,7.466249913E-2
4.663753445E0,-6.641250104E-2,-8.607500196E-1,1.051874980E-1
4.683753445E0,-8.222500235E-2,-9.475125074E-1,-1.581249945E-2
4.703753445E0,-2.862749994E-1,-7.631250024E-1,-2.337499987E-3
4.723753445E0,-3.046999872E-1,-3.500750065E-1,1.027124971E-1
4.743753445E0,-5.417500064E-2,1.649999991E-3,1.209999993E-1
4.763753445E0,1.131625026E-1,1.923625022E-1,8.799999952E-2
4.783753445E0,2.231625021E-1,3.804624975E-1,1.539999992E-1
4.803753445E0,2.451625019E-1,5.685625076E-1,2.297624946E-1
4.823753445E0,2.304500043E-1,8.593750000E-1,3.201000094E-1
4.843753445E0,5.017374754E-1,1.233237505E0,4.826250076E-1
4.863753445E0,8.657000065E-1,1.220999956E0,4.483875036E-1
4.883753445E0,9.366499782E-1,1.064662457E0,2.285249978E-1
4.903753445E0,6.848874688E-1,1.057237506E0,7.466249913E-2
4.923753445E0,5.615500212E-1,1.506862521E0,1.784749925E-1
4.943753445E0,9.207000136E-1,1.798912525E0,3.385249972E-1
4.963753445E0,9.634624720E-1,1.415287495E0,2.017125040E-1
4.983753445E0,5.885000229E-1,1.274762511E0,3.795000166E-2
5.003753445E0,3.649249971E-1,1.716962457E0,7.342500240E-2
5.023753445E0,5.920749903E-1,1.956487536E0,2.358125001E-1
5.043753445E0,5.982624888E-1,1.644912481E0,8.195000142E-2
5.063753445E0,3.392125070E-1,1.638862491E0,-2.928750031E-2
5.083753445E0,2.817375064E-1,1.884437442E0,1.027124971E-1
5.103753445E0,4.602124989E-1,2.028537512E0,2.540999949E-1
5.123753445E0,4.602124989E-1,1.725487471E0,1.588124931E-1
5.143753445E0,3.881624937E-1,1.747487545E0,1.564749926E-1
5.163753445E0,4.259749949E-1,1.701149940E0,2.688125074E-1
5.183753445E0,5.787374973E-1,1.798912525E0,3.690499961E-1
5.203753445E0,7.301250100E-1,1.745149970E0,4.129124880E-1
5.223753445E0,7.081249952E-1,1.501912475E0,3.335750103E-1
5.243753445E0,6.690750122E-1,1.509337544E0,2.798124850E-1
5.263753445E0,6.177874804E-1,1.591150045E0,2.993375063E-1
5.283753445E0,6.837875247E-1,1.571624994E0,3.262875080E-1
5.303753445E0,6.898375154E-1,1.401812434E0,1.992374957E-1
5.323753445E0,5.224999785E-1,1.406625032E0,6.118749827E-2
5.343753445E0,4.540250003E-1,1.675437450E0,9.295000136E-2
5.363753445E0,3.392125070E-1,1.448287487E0,1.223750040E-2
5.383753445E0,4.186874926E-1,1.394525051E0,3.918749839E-2
5.403753445E0,6.104999781E-1,1.462862492E0,1.062875018E-1
5.423753445E0,7.070249915E-1,1.406625032E0,1.845249981E-1
5.443753445E0,5.567374825E-1,1.260049939E0,1.270499974E-1
5.463753445E0,3.574999869E-1,1.235574961E0,9.047500044E-2
5.483753445E0,3.392125070E-1,1.247812510E0,7.328750193E-2
5.503753445E0,3.990249932E-1,1.249050021E0,7.576250285E-2
5.523753445E0,3.795000017E-1,1.297999978E0,1.172875017E-1
5.543753445E0,3.465000093E-1,1.301574945E0,1.222374961E-1
5.563753445E0,3.977875113E-1,1.311337471E0,1.699499935E-1
5.583753445E0,6.385499835E-1,1.227049947E0,2.249500006E-1
5.603753445E0,6.055499911E-1,1.044999957E0,2.054249942E-1
5.623753445E0,5.224999785E-1,1.035237551E0,2.164250016E-1
5.643753445E0,5.017374754E-1,1.093950033E0,2.175250053E-1
5.663753445E0,4.490749836E-1,1.058475018E0,1.552374959E-1
5.683753445E0,4.027374983E-1,1.090237498E0,1.479499936E-1
5.703753445E0,3.880249858E-1,1.110999942E0,1.308999956E-1
5.723753445E0,3.990249932E-1,1.130524993E0,1.186624989E-1
5.743753445E0,3.514499962E-1,1.067000031E0,7.590000331E-2
5.763753445E0,2.255000025E-1,1.057237506E0,2.571249940E-2
5.783753445E0,2.036374956E-1,1.201475024E0,1.113750041E-2
5.803753445E0,3.232625127E-1,1.313812494E0,1.137124971E-1
5.823753445E0,4.600749910E-1,1.291812539E0,2.419999987E-1
5.843753445E0,4.833124876E-1,1.187999964E0,2.237125039E-1
5.863753445E0,3.770250082E-1,1.147712469E0,1.626625061E-1
5.883753445E0,2.804999948E-1,1.269812465E0,1.639000028E-1
5.903753445E0,4.589749873E-1,1.317525029E0,2.089999914E-1
5.923753445E0,5.358374715E-1,1.360287547E0,2.419999987E-1
5.943753445E0,5.750250220E-1,1.319999933E0,2.407625020E-1
5.963753445E0,5.517874956E-1,1.267337441E0,2.114749998E-1
5.983753445E0,5.627874732E-1,1.328524947E0,2.310000062E-1
6.003753445E0,6.311249733E-1,1.185524940E0,2.224749923E-1
6.023753445E0,4.992625117E-1,1.063424945E0,1.797125041E-1
6.043753445E0,3.574999869E-1,1.137949944E0,1.064250022E-1
6.063753445E0,3.429250121E-1,1.258812547E0,8.318749815E-2
6.083753445E0,3.184500039E-1,1.263762474E0,9.776250273E-2
6.103753445E0,4.295499921E-1,1.169712543E0,1.209999993E-1
6.123753445E0,5.750250220E-1,1.086524963E0,1.332374960E-1
6.143753445E0,6.275500059E-1,9.448999763E-1,1.124750003E-1
6.163753445E0,4.833124876E-1,8.581374884E-1,4.523750022E-2
6.183753445E0,2.499749959E-1,8.886625171E-1,-6.049999967E-3
6.203753445E0,8.249999955E-4,8.703749776E-1,-1.025749967E-1
6.223753445E0,-2.215124965E-1,8.593750000E-1,-1.941500008E-1
6.243753445E0,-1.947000027E-1,1.002237439E0,-1.575749964E-1
6.263753445E0,-4.317500070E-2,1.087762475E0,-9.281250089E-2
6.283753445E0,1.058750004E-1,1.113474965E0,-2.186249942E-2
6.303753445E0,2.243999988E-1,1.104949951E0,1.087625027E-1
6.323753445E0,5.175499916E-1,8.923749924E-1,1.907124966E-1
6.343753445E0,6.300249696E-1,6.602749825E-1,2.089999914E-1
6.363753445E0,5.542625189E-1,4.452250004E-1,1.857624948E-1
6.383753445E0,3.062124848E-1,2.033624947E-1,7.342500240E-2
6.403753445E0,4.963750020E-2,-2.392499894E-2,-6.586249918E-2
6.423753445E0,-2.007499933E-1,-5.028374791E-1,-1.856250018E-1
6.443753445E0,-4.915624857E-1,-7.826499939E-1,-1.966249943E-1
6.463753445E0,-6.333249807E-1,-8.681749701E-1,-1.929125041E-1
6.483753445E0,-5.318499804E-1,-8.449375033E-1,-9.404999763E-2
6.503753445E0,-4.120875001E-1,-1.006224990E0,-1.828750037E-2
6.523753445E0,-5.148000121E-1,-1.389850020E0,-7.562500238E-2
6.543753445E0,-5.843750238E-1,-1.502187490E0,-1.941500008E-1
6.563753445E0,-4.988499880E-1,-1.364137530E0,-2.124374956E-1
6.583753445E0,-4.060375094E-1,-1.414187551E0,-1.453374922E-1
6.603753445E0,-2.777499855E-1,-1.502187490E0,-3.052499890E-2
6.623753445E0,-2.887499928E-1,-1.659762502E0,-1.245749965E-1
6.643753445E0,-3.425124884E-1,-1.612187505E0,-2.088624984E-1
6.663753445E0,-3.205125034E-1,-1.364137530E0,-1.513874978E-1
6.683753445E0,-4.207499921E-1,-1.340899944E0,-2.136749923E-1
6.703753445E0,-5.343250036E-1,-1.393424988E0,-2.796750069E-1
6.723753445E0,-5.490375161E-1,-1.398375034E0,-2.662000060E-1
6.743753445E0,-3.095124960E-1,-1.431375027E0,-2.222000062E-1
6.763753445E0,-3.620375097E-1,-1.338562489E0,-2.846249938E-1
6.783753445E0,-4.573250115E-1,-1.019700050E0,-2.161500007E-1
6.803753445E0,-1.434125006E-1,-9.024124742E-1,1.374999993E-4
6.823753445E0,3.306874931E-1,-1.235849977E0,1.112374961E-1
6.843753445E0,8.249999955E-4,-1.573137522E0,-4.386249930E-2
6.863753445E0,-4.340874851E-1,-1.288375020E0,-9.404999763E-2
6.883753445E0,-4.120875001E-1,-1.050225019E0,-9.638749808E-2
6.903753445E0,-2.838000059E-1,-1.028224945E0,-1.073874980E-1
6.923753445E0,-4.573250115E-1,-1.073325038E0,-1.123374999E-1
6.943753445E0,-6.161375046E-1,-1.155274987E0,-1.721500009E-1
6.963753445E0,-5.073750019E-1,-1.340899944E0,-2.943874896E-1
6.983753445E0,-4.120875001E-1,-1.316562533E0,-2.638624907E-1
7.003753445E0,-4.353249967E-1,-1.253037453E0,-2.418625057E-1
7.023753445E0,-8.031374812E-1,-1.108799934E0,-2.858625054E-1
7.043753445E0,-8.922374845E-1,-1.182087541E0,-3.114374876E-1
7.063753445E0,-2.619374990E-1,-1.560899973E0,-1.551000029E-1
7.083753445E0,-1.677500010E-1,-1.463137507E0,-5.128749833E-2
7.103753445E0,-3.889875114E-1,-1.359325051E0,-5.733750015E-2
7.123753445E0,-4.328500032E-1,-1.389850020E0,-1.159124970E-1
7.143753445E0,-6.146249920E-2,-1.458187461E0,-5.857500061E-2
7.163753445E0,-4.525125027E-1,-1.504662514E0,-1.831499934E-1
7.183753445E0,-1.044999957E0,-1.365375042E0,-3.614875078E-1
7.203753445E0,-9.814749956E-1,-1.233374953E0,-3.957250118E-1
7.223753445E0,-3.057999909E-1,-1.331137538E0,-2.393874973E-1
7.243753445E0,7.287500054E-2,-1.476612449E0,-1.073874980E-1
7.263753445E0,-2.545124888E-1,-1.507137537E0,-1.368124932E-1
7.283753445E0,-1.038949966E0,-1.388612509E0,-3.517250121E-1
7.303753445E0,-1.181812525E0,-1.213850021E0,-4.336749911E-1
7.323753445E0,-8.116624951E-1,-9.524624944E-1,-3.261500001E-1
7.343753445E0,-2.069374919E-1,-1.055037498E0,-1.416250020E-1
7.363753445E0,-6.517499685E-2,-1.334849954E0,-1.111000031E-1
7.383753445E0,-5.783249736E-1,-1.239562511E0,-1.391499937E-1
7.403753445E0,-6.748499870E-1,-1.204087496E0,-1.660999954E-1
7.423753445E0,-4.010874927E-1,-1.272562504E0,-6.833750010E-2
7.443753445E0,-2.264624983E-1,-1.327562451E0,-2.337499987E-3
7.463753445E0,-2.252250016E-1,-1.366612434E0,1.237499993E-3
7.483753445E0,-3.937999904E-1,-1.482662439E0,-1.073874980E-1
7.503753445E0,-8.556625247E-1,-1.409374952E0,-2.491499931E-1
7.523753445E0,-1.038949966E0,-1.282325029E0,-2.662000060E-1
7.543753445E0,-6.369000077E-1,-1.303087473E0,-1.355749965E-1
7.563753445E0,1.539999992E-2,-1.577950001E0,-1.457499992E-2
7.583753445E0,-1.469874978E-1,-1.706237435E0,-7.809999585E-2
7.603753445E0,-7.957124710E-1,-1.476612449E0,-2.601499856E-1
7.623753445E0,-7.639499903E-1,-1.296900034E0,-2.638624907E-1
7.643753445E0,-4.756124914E-1,-1.369087458E0,-2.223374993E-1
7.663753445E0,-2.729375064E-1,-1.481425047E0,-1.795749962E-1
7.683753445E0,-3.865124881E-1,-1.485137463E0,-2.088624984E-1
7.703753445E0,-5.355625153E-1,-1.480187535E0,-1.893374920E-1
7.723753445E0,-3.852750063E-1,-1.386137486E0,-1.513874978E-1
7.743753445E0,-8.346249908E-2,-1.366612434E0,-2.804999985E-2
7.763753445E0,1.254000068E-1,-1.447187543E0,5.376249924E-2
7.783753445E0,-7.699999958E-3,-1.671999931E0,-5.733750015E-2
7.803753445E0,-5.575624704E-1,-1.294562459E0,-1.526249945E-1
7.823753445E0,-6.931374669E-1,-1.001274943E0,-1.501500010E-1
7.843753445E0,-4.047999978E-1,-7.264124751E-1,-3.574999981E-3
7.863753445E0,-5.169999972E-2,-1.116087437E0,4.771250114E-2
7.883753445E0,-1.091749966E-1,-1.476612449E0,3.712499980E-3
7.903753445E0,-5.073750019E-1,-1.463137507E0,-1.061500013E-1
7.923753445E0,-6.148999929E-1,-1.017225027E0,-1.758625060E-1
7.943753445E0,-4.940375090E-1,-6.128374934E-1,-1.501500010E-1
7.963753445E0,-2.937000096E-1,-5.908374786E-1,-3.409999982E-2
7.983753445E0,-1.457500011E-1,-7.666999698E-1,3.671250120E-2
8.003753445E0,-9.198749810E-2,-8.877000213E-1,7.699999958E-2
8.023753445E0,-1.512499992E-2,-8.009374738E-1,7.095000148E-2
8.043753445E0,8.868750185E-2,-6.226000190E-1,3.671250120E-2
8.063753445E0,6.435000151E-2,-5.603125095E-1,4.042499885E-2
8.083753445E0,-2.887499984E-3,-4.905999899E-1,1.842499897E-2
8.103753445E0,-6.888750196E-2,-4.258374870E-1,-3.299999982E-2
8.123753445E0,-1.384624988E-1,-1.999250054E-1,-4.276249930E-2
8.143753445E0,-1.249874979E-1,-6.874999963E-3,-5.733750015E-2
8.163753445E0,-1.396999955E-1,2.241249979E-1,-4.633750021E-2
8.183753445E0,-1.995124966E-1,5.245624781E-1,-4.399999976E-2
8.203753445E0,-2.557500005E-1,8.410875201E-1,-7.809999585E-2
8.223753445E0,-1.592250019E-1,1.081712484E0,-5.128749833E-2
8.243753445E0,-1.141249947E-2,1.379812479E0,1.099999994E-2
8.263753445E0,1.913999915E-1,1.627862453E0,9.528750181E-2
8.283753445E0,2.439250052E-1,1.432337523E0,4.523750022E-2
8.303753445E0,1.168750003E-1,1.355337501E0,-3.176249936E-2
8.323753445E0,2.256374955E-1,2.121350050E0,8.799999952E-2
8.343753445E0,9.488874674E-1,2.859312534E0,6.182000041E-1
8.363753445E0,1.072224975E0,2.194637537E0,6.059625149E-1
8.383753445E0,7.008374929E-1,1.669387460E0,2.590500116E-1
8.403753445E0,7.325999737E-1,2.526974916E0,4.349125028E-1
8.423753445E0,9.964625239E-1,2.632025003E0,6.524375081E-1
8.443753445E0,1.037987471E0,1.965012431E0,5.461499691E-1
8.463753445E0,7.387874722E-1,1.974774957E0,3.091000021E-1
8.483753445E0,7.961249948E-1,2.580737591E0,5.266249776E-1
8.503753445E0,9.866999984E-1,2.442687511E0,6.341499686E-1
8.523753445E0,7.716500163E-1,1.894199967E0,3.738625050E-1
8.543753445E0,6.642624736E-1,2.169062376E0,4.325749874E-1
8.563753445E0,1.061224937E0,2.590499878E0,6.939625144E-1
8.583753445E0,1.246987462E0,2.375449896E0,7.184374928E-1
8.603753445E0,7.704125047E-1,1.666912436E0,4.056249857E-1
8.623753445E0,4.197874963E-1,1.655912519E0,2.969999909E-1
8.643753445E0,7.753624916E-1,2.191062450E0,4.362874925E-1
8.663753445E0,9.634624720E-1,2.094537497E0,3.592875004E-1
8.683753445E0,8.034124970E-1,1.814725041E0,2.444749922E-1
8.703753445E0,7.460749745E-1,1.669387460E0,2.345750034E-1
8.723753445E0,7.643625140E-1,1.611912489E0,2.224749923E-1
8.743753445E0,8.071249723E-1,1.628962517E0,2.688125074E-1
8.763753445E0,8.584125042E-1,1.627862453E0,3.079999983E-1
8.783753445E0,7.143124938E-1,1.572862506E0,2.260500044E-1
8.803753445E0,5.370749831E-1,1.588675022E0,1.039500013E-1
8.823753445E0,4.076874852E-1,1.642437458E0,2.694999985E-2
8.843753445E0,3.574999869E-1,1.544674993E0,-5.609999970E-2
8.863753445E0,3.599750102E-1,1.729200006E0,-8.786249906E-2
8.883753445E0,3.587374985E-1,1.806200027E0,-3.533750027E-2
8.903753445E0,3.465000093E-1,1.759724975E0,4.647500068E-2
8.923753445E0,4.076874852E-1,1.574100018E0,8.318749815E-2
8.943753445E0,4.955500066E-1,1.469050050E0,1.589500010E-1
8.963753445E0,5.798375010E-1,1.575337529E0,3.018124998E-1
8.983753445E0,5.493124723E-1,1.580150008E0,2.860000134E-1
9.003753445E0,4.833124876E-1,1.455574989E0,1.405249983E-1
9.023753445E0,3.624500036E-1,1.537387490E0,4.895000160E-2
9.043753445E0,3.001624942E-1,1.745149970E0,1.491875052E-1
9.063753445E0,2.964499891E-1,1.608199954E0,1.698125005E-1
9.083753445E0,4.662624896E-1,1.436049938E0,2.773374915E-1
9.103753445E0,5.920749903E-1,1.366337538E0,3.408625126E-1
9.123753445E0,5.847874880E-1,1.253999949E0,2.750000060E-1
9.143753445E0,6.641250253E-1,1.370049953E0,2.590500116E-1
9.163753445E0,7.496500015E-1,1.384624958E0,2.505249977E-1
9.183753445E0,6.983624697E-1,1.333337545E0,2.077624947E-1
9.203753445E0,5.688375235E-1,1.234475017E0,2.248124927E-1
9.223753445E0,5.335000157E-1,1.243000031E0,2.750000060E-1
9.243753445E0,5.700749755E-1,1.278337479E0,3.458124995E-1
9.263753445E0,6.445999742E-1,1.251525044E0,4.288625121E-1
9.283753445E0,5.945500135E-1,9.021375179E-1,3.310999870E-1
9.303753445E0,6.104999781E-1,9.191874862E-1,3.482874930E-1
9.323753445E0,6.556000113E-1,1.030424953E0,3.458124995E-1
9.343753445E0,6.507874727E-1,1.004712462E0,3.812874854E-1
9.363753445E0,6.226000190E-1,8.936125040E-1,4.911499918E-1
9.383753445E0,5.640249848E-1,8.093249798E-1,5.168625116E-1
9.403753445E0,3.514499962E-1,6.846125126E-1,4.459125102E-1
9.423753445E0,2.023999989E-1,6.626124978E-1,4.068624973E-1
9.443753445E0,1.229249984E-1,6.395124793E-1,3.531000018E-1
9.463753445E0,9.487500042E-2,6.247999668E-1,2.980999947E-1
9.483753445E0,1.425874978E-1,5.490375161E-1,2.358125001E-1
9.503753445E0,2.806375027E-1,4.342249930E-1,1.882375032E-1
9.523753445E0,4.345000088E-1,3.169375062E-1,1.612875015E-1
9.543753445E0,5.810750127E-1,1.776500046E-1,1.905750036E-1
9.563753445E0,7.276499867E-1,6.036249921E-2,2.102375031E-1
9.583753445E0,9.281250238E-1,2.081750035E-1,1.942874938E-1
9.603753445E0,9.879375100E-1,5.112249851E-1,2.260500044E-1
9.623753445E0,7.814124823E-1,4.610374868E-1,2.847625017E-1
9.643753445E0,6.030749679E-1,1.507000029E-1,2.957625091E-1
9.663753445E0,4.272125065E-1,-4.963750020E-2,2.847625017E-1
9.683753445E0,1.828749925E-1,-1.911249943E-2,1.979999989E-1
9.703753445E0,-2.349874973E-1,1.348875016E-1,1.112374961E-1
9.723753445E0,-4.085125029E-1,-6.792499870E-2,8.662499487E-3
9.743753445E0,-3.669874966E-1,-4.845499992E-1,-1.293874979E-1
9.763753445E0,-1.787499934E-1,-9.414625168E-1,-1.721500009E-1
9.783753445E0,-4.124999978E-4,-1.190612435E0,-1.135749966E-1
9.803753445E0,-5.169999972E-2,-1.110037446E0,-5.486249924E-2
9.823753445E0,-6.333249807E-1,-1.052562475E0,-2.771999836E-1
9.843753445E0,-8.384749889E-1,-1.213850021E0,-3.651999831E-1
9.863753445E0,-4.683249891E-1,-1.486374974E0,-2.381500006E-1
9.883753445E0,-3.192749918E-1,-1.734287500E0,-2.015749961E-1
9.903753445E0,-4.097499847E-1,-1.717237473E0,-1.208624989E-1
9.923753445E0,-3.767499924E-1,-1.805237532E0,-2.149125040E-1
9.943753445E0,-7.529500127E-1,-1.928575039E0,-4.897750020E-1
9.963753445E0,-1.100000024E0,-1.734287500E0,-5.827249885E-1
9.983753445E0,-8.861874938E-1,-1.514425039E0,-3.957250118E-1
1.000375345E1,-3.693250120E-1,-1.679425001E0,-2.784374952E-1
1.002375344E1,-6.540874839E-1,-1.837000012E0,-4.727250040E-1
1.004375344E1,-8.568999767E-1,-1.629237533E0,-4.654375017E-1
1.006375345E1,-2.814624906E-1,-1.595000029E0,-1.416250020E-1
1.008375345E1,-7.988750190E-2,-1.883337498E0,9.762499481E-3
1.010375344E1,-5.160375237E-1,-2.014100075E0,-5.981250107E-2
1.012375344E1,-8.482375145E-1,-1.951812506E0,-1.710499972E-1
1.014375344E1,-4.097499847E-1,-1.832049966E0,-1.828750037E-2
1.016375345E1,-1.751749963E-1,-1.916337490E0,1.966249943E-2
1.018375344E1,-5.660874844E-1,-2.033624887E0,-4.509999976E-2
1.020375344E1,-1.113337517E0,-1.840574980E0,-1.733874977E-1
1.022375344E1,-1.251387477E0,-1.692762494E0,-2.674374878E-1
1.024375345E1,-7.627124786E-1,-1.669525027E0,-1.258125007E-1
1.026375344E1,-5.416125059E-1,-1.839337468E0,-3.533750027E-2
1.028375344E1,-9.264749885E-1,-1.981099963E0,-1.013374999E-1
1.030375344E1,-1.321099997E0,-1.845525026E0,-1.746249944E-1
1.032375345E1,-1.038812518E0,-1.618237495E0,-8.552499861E-2
1.034375344E1,-1.971749961E-1,-1.647524953E0,2.199999988E-1
1.036375344E1,-4.450874925E-1,-1.931049943E0,2.162874937E-1
1.038375344E1,-1.144000053E0,-1.977387547E0,3.547500074E-2
1.040375345E1,-1.201337457E0,-1.906574965E0,-8.304999769E-2
1.042375345E1,-7.066124678E-1,-1.785712481E0,4.399999976E-2
1.044375344E1,-4.732750058E-1,-1.766049981E0,1.149500012E-1
1.046375344E1,-9.422875047E-1,-1.868762493E0,8.676250279E-2
1.048375345E1,-1.163524985E0,-1.645187497E0,-1.704999991E-2
1.050375345E1,-9.129999876E-1,-1.437425017E0,5.142499879E-2
1.052375344E1,-6.613749862E-1,-1.443612456E0,1.747625023E-1
1.054375344E1,-5.391374826E-1,-1.624424934E0,1.832875013E-1
1.056375345E1,-7.396125197E-1,-1.924862504E0,-1.209999993E-2
1.058375345E1,-9.912375212E-1,-1.899287462E0,-1.196250021E-1
1.060375344E1,-1.041287541E0,-1.592662454E0,-6.352499872E-2
1.062375344E1,-8.189499974E-1,-1.367849946E0,7.576250285E-2
1.064375345E1,-4.756124914E-1,-1.624424934E0,1.344749928E-1
1.066375345E1,-4.487999976E-1,-1.717237473E0,7.576250285E-2
1.068375344E1,-8.971874714E-1,-1.463137507E0,-2.804999985E-2
1.070375344E1,-1.134099960E0,-1.150324941E0,-9.281250089E-2
1.072375344E1,-1.034000039E0,-1.178512454E0,-1.428624988E-1
1.074375345E1,-8.604750037E-1,-1.316562533E0,-1.428624988E-1
1.076375344E1,-8.018999696E-1,-1.375137448E0,-1.038125008E-1
1.078375344E1,-7.664250135E-1,-1.458187461E0,-1.611499935E-1
1.080375344E1,-7.908999920E-1,-1.432612538E0,-2.466749996E-1
1.082375345E1,-8.947125077E-1,-1.277374983E0,-2.246749997E-1
1.084375344E1,-7.749499679E-1,-1.173562527E0,-1.245749965E-1
1.086375344E1,-5.050374866E-1,-1.265137434E0,-1.025749967E-1
1.088375344E1,-2.899875045E-1,-1.187037468E0,8.195000142E-2
1.090375345E1,-2.532750070E-1,-1.194324970E0,1.357125044E-1
1.092375345E1,-3.547500074E-1,-1.200512528E0,1.087625027E-1
1.094375344E1,-5.368000269E-1,-1.264037490E0,6.352499872E-2
1.096375344E1,-6.931374669E-1,-1.304324985E0,-4.028749838E-2
1.098375345E1,-8.776624799E-1,-1.336087465E0,-1.073874980E-1
1.100375345E1,-8.959500194E-1,-1.261562467E0,-1.380500048E-1
1.102375344E1,-8.384749889E-1,-1.077037454E0,-1.513874978E-1
1.104375344E1,-7.309499979E-1,-9.902749658E-1,-1.416250020E-1
1.106375345E1,-6.161375046E-1,-8.852249980E-1,-1.196250021E-1
1.108375345E1,-4.120875001E-1,-8.192250133E-1,-1.513874978E-1
1.110375344E1,-2.569875121E-1,-7.666999698E-1,-1.563374996E-1
1.112375344E1,-1.116499975E-1,-6.616500020E-1,-9.762500226E-2
1.114375345E1,-2.241249941E-2,-5.187875032E-1,-5.857500061E-2
1.116375345E1,-1.264999993E-2,-3.537875116E-1,-5.376249924E-2
1.118375344E1,-2.612499893E-2,-2.572624981E-1,-7.328750193E-2
1.120375344E1,1.058750041E-2,-9.721250087E-2,-1.148125008E-1
1.122375344E1,8.992499858E-2,1.911250055E-1,-1.098624989E-1
1.124375345E1,1.608749926E-1,4.904625118E-1,-4.633750021E-2
1.126375344E1,1.278750002E-1,7.176125050E-1,-3.904999793E-2
1.128375344E1,7.906249911E-2,1.007187486E0,-4.812499974E-3
1.130375344E1,1.254000068E-1,1.362762451E0,7.452499866E-2
1.132375345E1,1.779250056E-1,1.545912504E0,1.247124970E-1
1.134375344E1,2.121624947E-1,1.627862453E0,1.747625023E-1
1.136375344E1,2.609750032E-1,1.807437539E0,2.310000062E-1
1.138375344E1,4.650250077E-1,2.045587540E0,3.653374910E-1
1.140375345E1,6.470749974E-1,1.866012454E0,3.055250049E-1
1.142375345E1,6.385499835E-1,1.784199953E0,2.004749924E-1
1.144375344E1,7.068874836E-1,2.225162506E0,3.726249933E-1
1.146375344E1,8.168874979E-1,2.401162386E0,5.706250072E-1
1.148375345E1,7.948874831E-1,2.184875011E0,5.656750202E-1
1.150375345E1,7.826499939E-1,2.197112560E0,5.559124947E-1
1.152375344E1,9.134125113E-1,2.338875055E0,6.096749902E-1
1.154375344E1,9.684125185E-1,2.452450037E0,6.133875251E-1
1.156375345E1,9.476500154E-1,2.476924896E0,5.718625188E-1
1.158375345E1,9.121749997E-1,2.489162445E0,5.876749754E-1
1.160375344E1,9.244124889E-1,2.482975006E0,6.194375157E-1
1.162375344E1,8.498874903E-1,2.166587591E0,4.411000013E-1
1.164375345E1,7.350749969E-1,2.071300030E0,3.310999870E-1
1.166375345E1,7.851250172E-1,2.409687519E0,4.533374906E-1
1.168375344E1,8.083624840E-1,2.409687519E0,4.618625045E-1
1.170375344E1,8.291249871E-1,2.221587420E0,4.558124840E-1
1.172375345E1,8.058875203E-1,1.954012513E0,3.372874856E-1
1.174375345E1,7.521250248E-1,2.127537489E0,2.822875082E-1
1.176375344E1,7.521250248E-1,2.194637537E0,2.773374915E-1
1.178375344E1,8.131750226E-1,2.048062563E0,2.443374991E-1
1.180375344E1,7.803124785E-1,1.726724982E0,1.149500012E-1
1.182375345E1,6.483125091E-1,1.765912533E0,1.209999993E-1
1.184375344E1,7.253124714E-1,1.897774935E0,2.835249901E-1
1.186375344E1,8.046500087E-1,1.792724967E0,2.517625093E-1
1.188375344E1,5.920749903E-1,1.564337492E0,1.124750003E-1
1.190375345E1,4.394499958E-1,1.498337507E0,7.218749821E-2
1.192375345E1,5.578374863E-1,1.630200028E0,1.588124931E-1
1.194375344E1,5.860249996E-1,1.705962539E0,2.150499970E-1
1.196375344E1,5.468375087E-1,1.597200036E0,2.407625020E-1
1.198375345E1,6.190249920E-1,1.558149934E0,3.067624867E-1
1.200375345E1,7.045499682E-1,1.521574974E0,4.142875075E-1
1.202375344E1,6.520249844E-1,1.414049983E0,4.043875039E-1
1.204375344E1,4.955500066E-1,1.611912489E0,4.142875075E-1
1.206375345E1,5.469750166E-1,1.699912548E0,5.522000194E-1
1.208375345E1,6.556000113E-1,1.469050050E0,5.620999932E-1
1.210375344E1,5.688375235E-1,1.262524962E0,4.813874960E-1
1.212375344E1,5.200250149E-1,1.403049946E0,5.693874955E-1
1.214375345E1,5.260750055E-1,1.476337433E0,6.231499910E-1
1.216375345E1,5.688375235E-1,1.545912504E0,6.279624701E-1
1.218375344E1,5.920749903E-1,1.575337529E0,6.023874879E-1
1.220375344E1,5.579749942E-1,1.411574960E0,5.278624892E-1
1.222375345E1,5.347374678E-1,1.225812435E0,4.130499959E-1
1.224375345E1,5.530250072E-1,1.324812531E0,4.153875113E-1
1.226375344E1,7.521250248E-1,1.393287539E0,5.803874731E-1
1.228375344E1,8.498874903E-1,1.253999949E0,6.279624701E-1
1.230375344E1,7.570750117E-1,1.055999994E0,5.631999969E-1
1.232375345E1,5.933125019E-1,8.849499822E-1,4.215750098E-1
1.234375344E1,4.687374830E-1,8.849499822E-1,2.895750105E-1
1.236375344E1,5.152124763E-1,1.073187470E0,3.176249862E-1
1.238375344E1,6.018375158E-1,1.113474965E0,3.250499964E-1
1.240375345E1,5.847874880E-1,9.631875157E-1,2.761000097E-1
1.242375345E1,5.200250149E-1,7.811374664E-1,2.517625093E-1
1.244375344E1,4.089249969E-1,6.797999740E-1,3.018124998E-1
1.246375344E1,3.233999908E-1,7.163749933E-1,3.702875078E-1
1.248375345E1,2.488749921E-1,6.418499947E-1,3.323374987E-1
1.250375345E1,2.096875012E-1,5.465624928E-1,2.688125074E-1
1.252375344E1,1.889249980E-1,5.380374789E-1,2.052875012E-1
1.254375344E1,1.083500013E-1,7.323250175E-1,1.918125004E-1
1.256375345E1,-6.146249920E-2,8.104249835E-1,1.417624950E-1
1.258375345E1,-5.046249926E-2,6.613749862E-1,8.428750187E-2
1.260375344E1,1.021625027E-1,4.892250001E-1,2.818750031E-2
1.262375344E1,3.037374914E-1,4.720374942E-1,9.899999946E-2
1.264375345E1,5.077875257E-1,4.757499993E-1,2.847625017E-1
1.266375345E1,7.130749822E-1,3.547500074E-1,3.812874854E-1
1.268375344E1,7.680749893E-1,2.754124999E-1,4.691500068E-1
1.270375344E1,6.226000190E-1,2.558875084E-1,4.448125064E-1
1.272375345E1,4.002625048E-1,1.959374994E-1,3.348124921E-1
1.274375345E1,1.779250056E-1,1.458874941E-1,2.004749924E-1
1.276375344E1,-1.006499976E-1,2.264624983E-1,8.428750187E-2
1.278375344E1,-2.167000026E-1,1.606000066E-1,5.142499879E-2
1.280375345E1,-1.544124931E-1,-3.305499852E-1,-2.804999985E-2
1.282375345E1,-2.190375030E-1,-8.082249761E-1,-1.551000029E-1
1.284375344E1,-2.399374992E-1,-1.014750004E0,-1.929125041E-1
1.286375344E1,1.911249943E-2,-1.195562482E0,-7.452499866E-2
1.288375344E1,6.435000151E-2,-1.532712460E0,-1.258125007E-1
1.290375345E1,-4.170374870E-1,-1.521712542E0,-2.491499931E-1
1.292375345E1,-6.991875172E-1,-1.389850020E0,-2.881999910E-1
1.294375344E1,-4.377999902E-1,-1.628000021E0,-3.249124885E-1
1.296375344E1,-4.536125064E-1,-2.180200100E0,-4.641999900E-1
1.298375345E1,-9.325249791E-1,-2.614012480E0,-6.914874911E-1
1.300375345E1,-1.042525053E0,-2.334199905E0,-5.924875140E-1
1.302375344E1,-5.598999858E-1,-2.214437485E0,-4.031499922E-1
1.304375344E1,-8.091874719E-1,-2.152149916E0,-4.934875071E-1
1.306375345E1,-1.335812449E0,-1.926100016E0,-6.755374670E-1
1.308375345E1,-1.133000016E0,-1.771000028E0,-6.315374970E-1
1.310375344E1,-1.787499934E-1,-1.913862467E0,-3.224374950E-1
1.312375344E1,-4.853749871E-1,-2.281675100E0,-4.274874926E-1
1.314375345E1,-1.307624936E0,-2.270674944E0,-7.463499904E-1
1.316375345E1,-1.474962473E0,-1.761237502E0,-8.258249760E-1
1.318375344E1,-9.240000248E-1,-1.453374982E0,-6.047250032E-1
1.320375344E1,-7.089499831E-1,-1.682999969E0,-3.493874967E-1
1.322375345E1,-8.837124705E-1,-1.968862534E0,-3.359124959E-1
1.324375345E1,-6.136624813E-1,-1.840574980E0,-2.271499932E-1
1.326375344E1,-1.152250022E-1,-1.689187527E0,-3.052499890E-2
1.328375344E1,-4.158000052E-1,-1.827237487E0,-1.490499973E-1
1.330375345E1,-1.130524993E0,-1.788049936E0,-3.957250118E-1
1.332375345E1,-1.003474951E0,-1.378849983E0,-4.092000127E-1
1.334375344E1,-3.278000057E-1,-1.229799986E0,-1.808124930E-1
1.336375344E1,-2.692250013E-1,-1.461899996E0,-1.000999957E-1
1.338375344E1,-6.736124754E-1,-1.642712474E0,-2.003374994E-1
1.340375345E1,-7.737125158E-1,-1.453374982E0,-2.638624907E-1
1.342375345E1,-4.780874848E-1,-1.210274935E0,-2.246749997E-1
1.344375344E1,-4.500375092E-1,-1.216325045E0,-2.406249940E-1
1.346375344E1,-6.674249768E-1,-1.397137523E0,-2.980999947E-1
1.348375345E1,-7.724750042E-1,-1.416662455E0,-3.359124959E-1
1.350375345E1,-6.771875024E-1,-1.256612539E0,-3.016749918E-1
1.352375344E1,-3.620375097E-1,-1.307899952E0,-2.063875049E-1
1.354375344E1,-3.363249898E-1,-1.382424951E0,-1.636250019E-1
1.356375345E1,-3.852750063E-1,-1.315325022E0,-1.123374999E-1
1.358375345E1,-3.570874929E-1,-1.311612487E0,-1.196250021E-1
1.360375344E1,-4.842749834E-1,-1.290850043E0,-1.953874975E-1
1.362375344E1,-7.554249763E-1,-1.086799979E0,-2.516250014E-1
1.364375345E1,-6.113250256E-1,-1.094225049E0,-2.198625058E-1
1.366375345E1,-2.727999985E-1,-1.257850051E0,-1.220999956E-1
1.368375344E1,-1.971749961E-1,-1.454612494E0,-7.933750004E-2
1.370375344E1,-4.903250039E-1,-1.475374937E0,-9.762500226E-2
1.372375345E1,-5.880874991E-1,-1.425187469E0,-1.380500048E-1
1.374375345E1,-2.997500002E-1,-1.251799941E0,-1.704999991E-2
1.376375344E1,-1.512499992E-2,-1.389850020E0,1.124750003E-1
1.378375344E1,3.382499889E-2,-1.701287508E0,1.160499975E-1
1.380375345E1,-3.167999983E-1,-1.708712459E0,-2.928750031E-2
1.382375345E1,-6.246625185E-1,-1.507137537E0,-1.098624989E-1
1.384375344E1,-5.623750091E-1,-1.362900019E0,-8.786249906E-2
1.386375344E1,-3.583250046E-1,-1.321375012E0,-7.287499961E-3
1.388375345E1,-2.947999835E-1,-1.393424988E0,-1.237499993E-3
1.390375345E1,-4.988499880E-1,-1.367849946E0,-1.135749966E-1
1.392375345E1,-6.821374893E-1,-1.154037476E0,-1.208624989E-1
1.394375344E1,-6.661875248E-1,-1.226087451E0,-9.528750181E-2
1.396375344E1,-3.840374947E-1,-1.326324940E0,5.499999970E-2
1.398375345E1,-8.717499673E-2,-1.494899988E0,1.612875015E-1
1.400375345E1,-1.746249944E-2,-1.497375011E0,1.930499971E-1
1.402375344E1,-2.912249863E-1,-1.325087547E0,1.270499974E-1
1.404375344E1,-4.560874999E-1,-1.140562534E0,8.552499861E-2
1.406375345E1,-1.372250021E-1,-1.088037491E0,1.882375032E-1
1.408375345E1,1.351625025E-1,-1.179612517E0,2.835249901E-1
1.410375344E1,2.158749998E-1,-1.235849977E0,3.140499890E-1
1.412375344E1,1.401125044E-1,-1.289612532E0,2.529999912E-1
1.414375345E1,-1.993750036E-2,-1.211374998E0,2.407625020E-1
1.416375345E1,-1.042250022E-1,-1.047749996E0,1.942874938E-1
1.418375344E1,-1.237500012E-1,-1.025750041E0,1.344749928E-1
1.420375344E1,-2.508000135E-1,-9.757000208E-1,2.571249940E-2
1.422375345E1,-4.487999976E-1,-9.059875011E-1,-7.933750004E-2
1.424375345E1,-5.355625153E-1,-7.533624768E-1,-1.416250020E-1
1.426375344E1,-5.098500252E-1,-6.153125167E-1,-1.135749966E-1
1.428375344E1,-4.793249965E-1,-6.763625145E-1,-8.552499861E-2
1.430375345E1,-4.878500104E-1,-7.447000146E-1,-9.776250273E-2
1.432375345E1,-5.538499951E-1,-7.972249985E-1,-1.722874939E-1
1.434375344E1,-6.026625037E-1,-8.034124970E-1,-2.138125002E-1
1.436375344E1,-5.673249960E-1,-7.154124975E-1,-2.626250088E-1
1.438375345E1,-3.205125034E-1,-3.525500000E-1,-2.211000025E-1
1.440375345E1,-6.888750196E-2,-1.546874940E-1,-7.576250285E-2
1.442375345E1,7.658749819E-2,-4.221250117E-2,-1.333750039E-2
1.444375344E1,2.529999986E-2,1.629374921E-1,-5.609999970E-2
1.446375344E1,-1.544124931E-1,4.342249930E-1,-1.075249985E-1
1.448375345E1,-2.692250013E-1,7.908999920E-1,-1.930499971E-1
1.450375345E1,-1.751749963E-1,9.571374655E-1,-2.125750035E-1
1.452375344E1,-8.346249908E-2,1.012137532E0,-1.953874975E-1
1.454375344E1,3.863750026E-2,1.174525023E0,-1.148125008E-1
1.456375345E1,1.694000065E-1,1.398100019E0,-4.881250113E-2
1.458375345E1,3.221625090E-1,1.558149934E0,-2.062499896E-2
1.460375344E1,3.807374835E-1,1.649862528E0,-2.557500079E-2
1.462375344E1,3.795000017E-1,1.781725049E0,3.423750028E-2
1.464375345E1,4.149749875E-1,1.861199975E0,6.366249919E-2
1.466375345E1,4.210250080E-1,1.956487536E0,4.523750022E-2
1.468375344E1,4.723125100E-1,2.098112583E0,1.307625026E-1
1.470375344E1,6.092625260E-1,2.136062384E0,2.407625020E-1
1.472375345E1,7.093625069E-1,2.081062555E0,2.969999909E-1
1.474375345E1,7.386500239E-1,2.106775045E0,3.641000092E-1
1.476375344E1,8.108375072E-1,2.148299932E0,4.593875110E-1
1.478375344E1,8.108375072E-1,2.072537422E0,4.190999866E-1
1.480375345E1,6.617875099E-1,2.095774889E0,2.785750031E-1
1.482375345E1,7.363125086E-1,2.338875055E0,3.360500038E-1
1.484375344E1,9.976999760E-1,2.371875048E0,4.155249894E-1
1.486375344E1,1.046512485E0,2.123825073E0,3.177624941E-1
1.488375345E1,9.646999836E-1,2.037062407E0,2.382874936E-1
1.490375345E1,8.804125190E-1,2.272875071E0,2.419999987E-1
1.492375345E1,8.144124746E-1,2.227637529E0,2.468124926E-1
1.494375344E1,8.254125118E-1,1.951537490E0,1.955250055E-1
1.496375345E1,8.657000065E-1,1.840437531E0,1.430000067E-1
1.498375345E1,9.207000136E-1,2.084774971E0,1.295250058E-1
1.500375345E1,9.842249751E-1,2.101824999E0,2.664749920E-1
1.502375344E1,1.064937472E0,1.768249989E0,2.114749998E-1
1.504375344E1,1.000174999E0,1.583862543E0,1.319999993E-1
1.506375345E1,8.425999880E-1,1.675437450E0,1.369500011E-1
1.508375345E1,8.181250095E-1,1.797675014E0,1.649999917E-1
1.510375344E1,9.096999764E-1,1.872200012E0,2.333374918E-1
1.512375344E1,9.366499782E-1,1.592387438E0,2.395250052E-1
1.514375345E1,8.120750189E-1,1.415287495E0,1.772374958E-1
1.516375345E1,5.885000229E-1,1.396862507E0,1.357125044E-1
1.518375344E1,5.995000005E-1,1.615625024E0,1.759999990E-1
1.520375344E1,7.545999885E-1,1.615625024E0,2.224749923E-1
1.522375345E1,9.464125037E-1,1.532575011E0,3.250499964E-1
1.524375345E1,7.913125157E-1,1.366337538E0,2.908124924E-1
1.526375344E1,5.798375010E-1,1.416387439E0,2.138125002E-1
1.528375344E1,5.530250072E-1,1.411574960E0,1.930499971E-1
1.530375345E1,5.957875252E-1,1.319999933E0,1.625249982E-1
1.532375345E1,5.567374825E-1,1.370049953E0,1.197625026E-1
1.534375344E1,6.006000042E-1,1.374862552E0,1.344749928E-1
1.536375344E1,6.958875060E-1,1.445812464E0,2.162874937E-1
1.538375345E1,8.193625212E-1,1.448287487E0,3.018124998E-1
1.540375345E1,6.947875023E-1,1.282050014E0,2.542375028E-1
1.542375345E1,6.165499687E-1,1.161049962E0,2.052875012E-1
1.544375344E1,5.677375197E-1,1.196524978E0,1.588124931E-1
1.546375345E1,4.894999862E-1,1.376099944E0,1.942874938E-1
1.548375345E1,4.515500069E-1,1.299237490E0,1.955250055E-1
1.550375345E1,5.042124987E-1,1.178237438E0,1.600500047E-1
1.552375344E1,4.675000012E-1,1.058475018E0,8.428750187E-2
1.554375344E1,5.578374863E-1,1.107424974E0,1.259499937E-1
1.556375345E1,6.323624849E-1,1.206287503E0,2.028124928E-1
1.558375345E1,5.677375197E-1,1.187999964E0,2.615250051E-1
1.560375344E1,5.335000157E-1,1.054762483E0,2.750000060E-1
1.562375344E1,5.677375197E-1,9.191874862E-1,2.443374991E-1
1.564375345E1,4.919750094E-1,1.034000039E0,1.502874941E-1
1.566375345E1,3.416875005E-1,1.178237438E0,1.259499937E-1
1.568375344E1,2.989250124E-1,1.227049947E0,8.552499861E-2
1.570375344E1,3.489750028E-1,1.179474950E0,4.647500068E-2
1.572375345E1,3.539249897E-1,1.162287474E0,3.795000166E-2
1.574375345E1,3.111625016E-1,1.172049999E0,6.723749638E-2
1.576375344E1,2.268749923E-1,1.124475002E0,5.499999970E-2
1.578375344E1,1.376374960E-1,1.076762438E0,-8.524999954E-3
1.580375345E1,1.095874980E-1,9.802374840E-1,-8.786249906E-2
1.582375345E1,1.828749925E-1,8.398500085E-1,-7.328750193E-2
1.584375344E1,2.524499893E-1,7.578999996E-1,-1.333750039E-2
1.586375344E1,3.001624942E-1,8.813750148E-1,1.137124971E-1
1.588375345E1,2.061125040E-1,9.571374655E-1,2.285249978E-1
1.590375345E1,8.511249721E-2,7.530875206E-1,2.248124927E-1
1.592375345E1,1.583999991E-1,3.499374986E-1,2.285249978E-1
1.594375344E1,2.744500041E-1,-1.046374962E-1,2.663374841E-1
1.596375345E1,2.646875083E-1,-4.345000088E-1,2.920500040E-1
1.598375345E1,-2.887499984E-3,-4.772624969E-1,2.015749961E-1
1.600375344E1,-3.840374947E-1,-4.967874885E-1,6.187499966E-3
1.602375344E1,-5.795624852E-1,-5.443624854E-1,-2.088624984E-1
1.604375344E1,-4.438500106E-1,-7.191249728E-1,-3.554374874E-1
1.606375344E1,-2.846249938E-2,-8.156499863E-1,-2.809124887E-1
1.608375344E1,1.913999915E-1,-9.634624720E-1,-1.331000030E-1
1.610375345E1,1.143999994E-1,-1.095324993E0,-1.013374999E-1
1.612375345E1,-1.469874978E-1,-1.268849969E0,-1.746249944E-1
1.614375344E1,-3.412750065E-1,-1.522949934E0,-2.113374919E-1
1.616375344E1,-3.852750063E-1,-1.757524967E0,-2.125750035E-1
1.618375344E1,-4.500375092E-1,-1.767287493E0,-2.919124961E-1
1.620375344E1,-5.598999858E-1,-1.637762547E0,-3.224374950E-1
1.622375344E1,-4.292750061E-1,-1.621950030E0,-2.528625131E-1
1.624375344E1,-4.780874848E-1,-1.773474932E0,-2.613874972E-1
1.626375345E1,-7.517125010E-1,-1.605999947E0,-3.041499853E-1
1.628375345E1,-8.311874866E-1,-1.207800031E0,-3.518624902E-1
1.630375344E1,-5.905625224E-1,-1.317662477E0,-3.396250010E-1
1.632375344E1,-2.935625017E-1,-1.485137463E0,-2.063875049E-1
1.634375344E1,-2.985124886E-1,-1.463137507E0,-1.086250022E-1
1.636375344E1,-3.412750065E-1,-1.483899951E0,-9.157499671E-2
1.638375344E1,-3.363249898E-1,-1.482662439E0,-8.786249906E-2
1.640375344E1,-5.636125207E-1,-1.535187483E0,-1.588124931E-1
1.642375345E1,-7.786625028E-1,-1.612187505E0,-1.831499934E-1
1.644375345E1,-5.696625113E-1,-1.678187490E0,-9.281250089E-2
1.646375345E1,-4.866124988E-1,-1.682999969E0,-8.524999954E-3
1.648375344E1,-8.226624727E-1,-1.739237547E0,-1.704999991E-2
1.650375344E1,-8.434249759E-1,-1.870000005E0,-7.686249912E-2
1.652375344E1,-7.261375189E-1,-1.915099978E0,-1.380500048E-1
1.654375344E1,-8.776624799E-1,-1.827237487E0,-1.771000028E-1
1.656375344E1,-1.161049962E0,-1.751474977E0,-2.051499933E-1
1.658375344E1,-1.101237535E0,-1.810050011E0,-1.465750039E-1
1.660375345E1,-6.369000077E-1,-2.008049965E0,-2.309999987E-2
1.662375345E1,-5.623750091E-1,-2.066624880E0,4.152499884E-2
1.664375344E1,-9.057124853E-1,-2.110625029E0,-3.574999981E-3
1.666375344E1,-1.297862530E0,-1.888287544E0,-7.809999585E-2
1.668375344E1,-1.311337471E0,-1.700187445E0,-1.831499934E-1
1.670375344E1,-6.686624885E-1,-1.902862549E0,-2.433750033E-2
1.672375344E1,-3.998500109E-1,-2.114337444E0,1.674750000E-1
1.674375344E1,-8.690000176E-1,-2.026337385E0,1.039500013E-1
1.676375345E1,-1.277099967E0,-1.714762449E0,-2.557500079E-2
1.678375345E1,-1.104812503E0,-1.580425024E0,1.842499897E-2
1.680375344E1,-4.866124988E-1,-1.745287538E0,2.235749960E-1
1.682375344E1,-3.217499852E-1,-1.912762523E0,3.385249972E-1
1.684375344E1,-6.661875248E-1,-1.927337527E0,2.847625017E-1
1.686375344E1,-1.140287519E0,-1.824762464E0,1.099999994E-1
1.688375344E1,-1.180575013E0,-1.845525026E0,4.949999973E-3
1.690375344E1,-9.765250087E-1,-1.827237487E0,-1.333750039E-2
1.692375345E1,-7.371374965E-1,-1.755049944E0,7.095000148E-2
1.694375345E1,-9.167125225E-1,-1.753812432E0,2.571249940E-2
1.696375345E1,-1.117050052E0,-1.641474962E0,-4.028749838E-2
1.698375344E1,-1.069474936E0,-1.581662536E0,-6.104999781E-2
1.700375344E1,-8.409500122E-1,-1.588950038E0,-6.476250291E-2
1.702375344E1,-6.821374893E-1,-1.670762539E0,-8.181250095E-2
1.704375344E1,-8.458999991E-1,-1.705000043E0,-1.648624986E-1
1.706375344E1,-1.073050022E0,-1.588950038E0,-2.088624984E-1
1.708375345E1,-9.277125001E-1,-1.542474985E0,-8.304999769E-2
1.710375345E1,-6.283749938E-1,-1.642712474E0,-1.099999994E-2
1.712375345E1,-4.500375092E-1,-1.722049952E0,1.222374961E-1
1.714375344E1,-5.123249888E-1,-1.665949941E0,1.564749926E-1
1.716375344E1,-4.670875072E-1,-1.488712549E0,2.028124928E-1
1.718375344E1,-4.415124953E-1,-1.343374968E0,1.137124971E-1
1.720375344E1,-5.135625005E-1,-1.226087451E0,4.276249930E-2
1.722375344E1,-5.465624928E-1,-1.292087436E0,1.223750040E-2
1.724375344E1,-5.086125135E-1,-1.281087518E0,3.423750028E-2
1.726375345E1,-4.780874848E-1,-1.173562527E0,9.171249717E-2
1.728375345E1,-4.463250041E-1,-1.111274958E0,7.699999958E-2
1.730375344E1,-3.790875077E-1,-1.040462494E0,4.276249930E-2
1.732375344E1,-3.082749844E-1,-1.042799950E0,3.176249936E-2
1.734375344E1,-3.412750065E-1,-1.119799972E0,9.762499481E-3
1.736375344E1,-4.170374870E-1,-1.118562460E0,3.712499980E-3
1.738375344E1,-4.598000050E-1,-1.070987463E0,-2.337499987E-3
1.740375344E1,-4.658499956E-1,-1.056275010E0,-3.286249936E-2
1.742375345E1,-4.475624859E-1,-9.780374765E-1,-1.160499975E-1
1.744375345E1,-3.327499926E-1,-6.678375006E-1,-1.135749966E-1
1.746375345E1,-1.751749963E-1,-4.723125100E-1,-6.833750010E-2
1.748375344E1,-1.214125007E-1,-3.427875042E-1,-1.183874980E-1
1.750375344E1,-1.739374995E-1,-2.072124928E-1,-1.893374920E-1
1.752375344E1,-2.532750070E-1,6.159999967E-2,-1.868624985E-1
1.754375344E1,-2.765125036E-1,4.537499845E-1,-1.918125004E-1
1.756375344E1,-2.935625017E-1,7.481374741E-1,-2.796750069E-1
1.758375345E1,-2.985124886E-1,1.195287466E0,-2.736249864E-1
1.760375345E1,-2.740375102E-1,1.451862454E0,-2.211000025E-1
1.762375345E1,-1.702249944E-1,1.473862529E0,-1.929125041E-1
1.764375344E1,3.258749843E-2,1.589912534E0,-1.600500047E-1
1.766375344E1,3.429250121E-1,1.682724953E0,-3.286249936E-2
1.768375344E1,5.150749683E-1,1.685199976E0,-4.509999976E-2
1.770375344E1,5.578374863E-1,1.846487522E0,-9.157499671E-2
1.772375344E1,5.090249777E-1,2.049299955E0,-5.252499878E-2
1.774375344E1,5.995000005E-1,2.232587576E0,1.515250057E-1
1.776375345E1,7.680749893E-1,2.170300007E0,2.370499969E-1
1.778375345E1,7.766000032E-1,2.099349976E0,2.175250053E-1
1.780375344E1,7.924125195E-1,2.368162394E0,2.285249978E-1
1.782375344E1,9.549375176E-1,2.639450073E0,3.397625089E-1
1.784375344E1,1.053937435E0,2.500162601E0,3.898124993E-1
1.786375344E1,9.061250091E-1,2.147062540E0,2.822875082E-1
1.788375344E1,7.851250172E-1,2.232587576E0,2.199999988E-1
1.790375344E1,8.364124894E-1,2.580737591E0,3.287625015E-1
1.792375345E1,9.256500006E-1,2.656500101E0,3.933874965E-1
1.794375345E1,8.999375105E-1,2.449975014E0,3.018124998E-1
1.796375345E1,7.545999885E-1,2.386450052E0,2.370499969E-1
1.798375344E1,7.693125010E-1,2.533162594E0,3.823874891E-1
1.800375344E1,9.549375176E-1,2.498924971E0,5.095750093E-1
1.802375344E1,9.366499782E-1,2.123825073E0,4.679124951E-1
1.804375344E1,7.728874683E-1,1.842774987E0,3.420999944E-1
1.806375344E1,7.986000180E-1,1.983299971E0,3.165250123E-1
1.808375345E1,1.198037505E0,2.215399981E0,4.350500107E-1
1.810375345E1,1.202987552E0,1.976012468E0,3.580499887E-1
1.812375345E1,9.989374876E-1,1.699912548E0,2.310000062E-1
1.814375344E1,7.655999660E-1,1.657150030E0,1.112374961E-1
1.816375344E1,6.373124719E-1,1.851437449E0,1.380500048E-1
1.818375344E1,6.958875060E-1,1.785437465E0,1.894749999E-1
1.820375344E1,7.655999660E-1,1.580150008E0,1.515250057E-1
1.822375344E1,7.178875208E-1,1.516625047E0,7.342500240E-2
1.824375344E1,6.665999889E-1,1.633912444E0,1.099999994E-1
1.826375345E1,6.788374782E-1,1.505625010E0,1.075249985E-1
1.828375345E1,6.190249920E-1,1.289337516E0,7.699999958E-2
1.830375344E1,5.957875252E-1,1.363862514E0,5.995000154E-2
1.832375344E1,6.092625260E-1,1.492149949E0,9.047500044E-2
1.834375344E1,6.690750122E-1,1.550862551E0,1.845249981E-1
1.836375344E1,6.653624773E-1,1.383525014E0,2.077624947E-1
1.838375344E1,6.507874727E-1,1.239287496E0,1.979999989E-1
1.840375344E1,6.006000042E-1,1.304049969E0,2.150499970E-1
1.842375345E1,5.957875252E-1,1.403049946E0,2.553375065E-1
1.844375345E1,6.958875060E-1,1.533674955E0,3.213374913E-1
1.846375345E1,8.938875198E-1,1.472625017E0,4.020499885E-1
1.848375344E1,1.034412503E0,1.244237542E0,4.471499920E-1
1.850375344E1,9.134125113E-1,1.183050036E0,3.275249898E-1
1.852375344E1,7.045499682E-1,1.313812494E0,2.028124928E-1
1.854375344E1,5.457375050E-1,1.451862454E0,2.040500045E-1
1.856375344E1,5.737875104E-1,1.399337530E0,2.492875010E-1
1.858375345E1,5.872625113E-1,1.206287503E0,2.565749884E-1
1.860375345E1,5.920749903E-1,1.228287458E0,2.957625091E-1
1.862375345E1,5.860249996E-1,1.219762444E0,2.785750031E-1
1.864375344E1,4.100250006E-1,1.241762519E0,2.688125074E-1
1.866375344E1,1.633500010E-1,1.293050051E0,1.907124966E-1
1.868375344E1,2.639999986E-2,1.447049975E0,1.845249981E-1
1.870375344E1,-1.869999990E-2,1.436049938E0,2.199999988E-1
1.872375344E1,6.806249917E-2,1.304049969E0,2.089999914E-1
1.874375344E1,3.382499889E-2,1.128187537E0,1.687124968E-1
1.876375345E1,-8.937500417E-3,1.065762520E0,9.528750181E-2
1.878375345E1,-1.152250022E-1,1.175762534E0,1.594999991E-2
1.880375344E1,-2.215124965E-1,1.356575012E0,-2.309999987E-2
1.882375344E1,-1.995124966E-1,1.477574944E0,3.423750028E-2
1.884375344E1,2.034999989E-2,1.351762533E0,1.710499972E-1
1.886375344E1,3.844499886E-1,1.025475025E0,3.518624902E-1
1.888375344E1,7.143124938E-1,7.213249803E-1,5.376250148E-1
1.890375344E1,7.728874683E-1,5.343250036E-1,5.876749754E-1
1.892375345E1,4.504500031E-1,5.392749906E-1,4.923875034E-1
1.894375345E1,1.266375035E-1,5.172749758E-1,3.812874854E-1
1.896375345E1,6.874999963E-3,3.719374835E-1,2.382874936E-1
1.898375344E1,1.106875017E-1,6.283749640E-2,9.528750181E-2
1.900375344E1,6.187500060E-2,-1.497374922E-1,3.795000166E-2
1.902375344E1,-1.214125007E-1,-2.829749882E-1,-2.186249942E-2
1.904375344E1,-1.909874976E-1,-4.160749912E-1,-7.933750004E-2
1.906375344E1,-1.654125005E-1,-5.150749683E-1,-8.662500232E-2
1.908375345E1,-7.741250098E-2,-5.480750203E-1,-4.386249930E-2
1.910375345E1,5.582499877E-2,-6.556000113E-1,-2.337499987E-3
1.912375345E1,1.534499973E-1,-8.021749854E-1,6.847500056E-2
1.914375344E1,1.095874980E-1,-1.143037438E0,-1.333750039E-2
1.916375344E1,-1.127500013E-1,-1.260324955E0,-1.293874979E-1
1.918375344E1,-2.935625017E-1,-1.273800015E0,-1.771000028E-1
1.920375344E1,-2.459875047E-1,-1.577950001E0,-1.698125005E-1
1.922375344E1,-3.327499926E-1,-2.043387413E0,-2.443374991E-1
1.924375345E1,-1.036474943E0,-2.265724897E0,-4.397250116E-1
1.926375345E1,-1.351624966E0,-1.965287447E0,-5.142499804E-1
1.928375345E1,-1.079237461E0,-1.758762479E0,-4.569124877E-1
1.930375344E1,-9.570000172E-1,-1.944525003E0,-4.984374940E-1
1.932375344E1,-1.087762475E0,-2.175387383E0,-5.326749682E-1
1.934375344E1,-9.057124853E-1,-2.287724972E0,-5.044875145E-1
1.936375344E1,-2.312749922E-1,-2.292675018E0,-3.102000058E-1
1.938375344E1,6.435000151E-2,-2.211962461E0,-1.282874942E-1
1.940375344E1,-5.183749795E-1,-2.119149923E0,-1.428624988E-1
1.942375345E1,-1.258812547E0,-2.081337452E0,-4.031499922E-1
1.944375345E1,-1.175762534E0,-1.950574994E0,-4.604874849E-1
1.946375345E1,-3.449875116E-1,-1.799049973E0,-1.440999955E-1
1.948375344E1,-3.547500074E-1,-1.849237442E0,3.066249937E-2
1.950375344E1,-8.141375184E-1,-1.990862489E0,-3.052499890E-2
1.952375344E1,-9.557625055E-1,-1.986050010E0,-8.304999769E-2
1.954375344E1,-8.446624875E-1,-1.967625022E0,-1.331000030E-1
1.956375344E1,-4.646124840E-1,-1.741712451E0,3.712499980E-3
1.958375345E1,-5.013250113E-1,-1.748999953E0,3.176249936E-2
1.960375345E1,-1.164762497E0,-1.844287515E0,-1.673374921E-1
1.962375345E1,-1.415150046E0,-1.715999961E0,-3.689124882E-1
1.964375344E1,-9.900000095E-1,-1.443612456E0,-3.639625013E-1
1.966375344E1,-2.740375102E-1,-1.262799978E0,-1.220999956E-1
1.968375344E1,-5.843750238E-1,-1.380087495E0,-5.252499878E-2
1.970375344E1,-1.260049939E0,-1.575474977E0,-1.453374922E-1
1.972375344E1,-1.288100004E0,-1.601187468E0,-2.063875049E-1
1.974375345E1,-7.701374888E-1,-1.424087524E0,-2.040500045E-1
1.976375345E1,-6.051374674E-1,-1.348325014E0,-6.957499683E-2
1.978375345E1,-9.594749808E-1,-1.494899988E0,-2.199999988E-2
1.980375344E1,-1.040050030E0,-1.708712459E0,-1.416250020E-1
1.982375344E1,-9.167125225E-1,-1.806475043E0,-2.028124928E-1
1.984375344E1,-7.871875167E-1,-1.623187542E0,-1.588124931E-1
1.986375344E1,-7.346624732E-1,-1.386137486E0,-9.404999763E-2
1.988375344E1,-7.309499979E-1,-1.391087532E0,-3.904999793E-2
1.990375344E1,-5.378999710E-1,-1.546187520E0,3.299999982E-2
1.992375345E1,-3.119874895E-1,-1.673237443E0,1.258125007E-1
1.994375345E1,-4.316124916E-1,-1.768525004E0,3.052499890E-2
1.996375345E1,-7.101874948E-1,-1.593899965E0,-7.452499866E-2
1.998375344E1,-7.358999848E-1,-1.301849961E0,-7.809999585E-2
2.000375344E1,-5.465624928E-1,-1.279850006E0,-2.681249939E-2
2.002375344E1,-4.230875075E-1,-1.399612546E0,1.718750037E-2
2.004375344E1,-4.633750021E-1,-1.568187475E0,4.949999973E-3
2.006375344E1,-6.234250069E-1,-1.664712548E0,-6.710000336E-2
2.008375345E1,-7.358999848E-1,-1.572999954E0,-1.403875053E-1
2.010375345E1,-7.126625180E-1,-1.447187543E0,-2.271499932E-1
2.012375345E1,-6.626124978E-1,-1.430137515E0,-2.761000097E-1
2.014375344E1,-6.919000149E-1,-1.469187498E0,-3.004375100E-1
2.016375344E1,-6.626124978E-1,-1.469187498E0,-3.627249897E-1
2.018375344E1,-5.073750019E-1,-1.380087495E0,-4.019125104E-1
2.020375344E1,-3.242250085E-1,-1.343374968E0,-3.126749992E-1
2.022375344E1,-2.740375102E-1,-1.510712504E0,-3.212000132E-1
2.024375345E1,-3.645125031E-1,-1.398375034E0,-2.711499929E-1
2.026375345E1,-5.698000193E-1,-1.182087541E0,-2.761000097E-1
2.028375345E1,-6.906625032E-1,-1.057512522E0,-2.235749960E-1
2.030375344E1,-7.261375189E-1,-1.154037476E0,-9.762500226E-2
2.032375344E1,-6.771875024E-1,-1.415424943E0,-1.952499896E-2
2.034375344E1,-5.611374974E-1,-1.452137470E0,3.423750028E-2
2.036375344E1,-3.999874890E-1,-1.295799971E0,4.276249930E-2
2.038375344E1,-2.655124962E-1,-1.009799957E0,1.282874942E-1
2.040375344E1,-1.482249945E-1,-7.496500015E-1,2.737624943E-1
2.042375345E1,-9.322500229E-2,-6.653624773E-1,3.715249896E-1
2.044375345E1,-8.717499673E-2,-6.580749750E-1,4.008125067E-1
2.046375345E1,-1.201749966E-1,-5.615500212E-1,3.360500038E-1
2.048375344E1,-1.409374923E-1,-3.892624974E-1,1.992374957E-1
2.050375344E1,-1.457500011E-1,-2.377374917E-1,7.218749821E-2
2.052375344E1,-1.702249944E-1,1.388750039E-2,-4.386249930E-2
2.054375344E1,-1.629374921E-1,2.864125073E-1,-6.710000336E-2
2.056375344E1,-1.006499976E-1,5.270375013E-1,-5.362499878E-2
2.058375345E1,1.306249946E-2,6.833750010E-1,-8.662500232E-2
2.060375345E1,1.181124970E-1,7.566624880E-1,-1.392875016E-1
2.062375345E1,1.413500011E-1,9.461374879E-1,-2.345750034E-1
2.064375344E1,1.143999994E-1,1.291812539E0,-2.748624980E-1
2.066375344E1,7.906249911E-2,1.587437510E0,-1.831499934E-1
2.068375344E1,8.139999956E-2,1.602149963E0,-6.586249918E-2
2.070375344E1,1.473999918E-1,1.449387550E0,-6.476250291E-2
2.072375344E1,3.539249897E-1,1.377337456E0,-1.208624989E-1
2.074375345E1,4.967874885E-1,1.544674993E0,-1.333750039E-2
2.076375345E1,6.080250144E-1,1.718199968E0,9.776250273E-2
2.078375345E1,6.115999818E-1,1.589912534E0,7.452499866E-2
2.080375344E1,5.187875032E-1,1.398100019E0,6.476250291E-2
2.082375344E1,4.870249927E-1,1.444574952E0,8.428750187E-2
2.084375344E1,6.055499911E-1,1.773200035E0,1.087625027E-1
2.086375344E1,6.605499983E-1,1.798912525E0,9.899999946E-2
2.088375344E1,6.776000261E-1,1.675437450E0,1.502874941E-1
2.090375344E1,6.850249767E-1,1.538625002E0,1.942874938E-1
2.092375345E1,7.068874836E-1,1.508100033E0,2.187625021E-1
2.094375345E1,6.568375230E-1,1.461624980E0,2.077624947E-1
2.096375345E1,5.908374786E-1,1.515387535E0,1.832875013E-1
2.098375344E1,5.897374749E-1,1.566674948E0,1.992374957E-1
2.100375344E1,5.970249772E-1,1.558149934E0,2.260500044E-1
2.102375344E1,6.458374858E-1,1.575337529E0,2.822875082E-1
2.104375344E1,6.470749974E-1,1.470149994E0,2.798124850E-1
2.106375344E1,6.226000190E-1,1.437287450E0,2.602874935E-1
2.108375345E1,6.250749826E-1,1.472625017E0,2.615250051E-1
2.110375345E1,5.895999670E-1,1.548387527E0,2.652375102E-1
2.112375345E1,5.895999670E-1,1.588675022E0,3.005749881E-1
2.114375344E1,6.360750198E-1,1.549625039E0,2.920500040E-1
2.116375344E1,6.202625036E-1,1.534912467E0,2.932874858E-1
2.118375344E1,5.885000229E-1,1.525149941E0,2.737624943E-1
2.120375344E1,5.823125243E-1,1.530099988E0,2.615250051E-1
2.122375344E1,5.260750055E-1,1.510574937E0,2.358125001E-1
2.124375345E1,5.590749979E-1,1.554437518E0,2.492875010E-1
2.126375345E1,6.958875060E-1,1.647387505E0,3.360500038E-1
2.128375345E1,7.301250100E-1,1.553337455E0,3.298625052E-1
2.130375344E1,6.312624812E-1,1.428624988E0,2.334749997E-1
2.132375344E1,4.785000086E-1,1.461624980E0,1.307625026E-1
2.134375344E1,4.124999940E-1,1.615625024E0,1.307625026E-1
2.136375344E1,6.335999966E-1,1.823249936E0,3.420999944E-1
2.138375344E1,8.449375033E-1,1.687674999E0,4.643374979E-1
2.140375345E1,8.779374957E-1,1.416387439E0,4.691500068E-1
2.142375345E1,8.131750226E-1,1.389575005E0,4.373874962E-1
2.144375345E1,7.863624692E-1,1.577674985E0,4.228124917E-1
2.146375345E1,7.643625140E-1,1.633912444E0,3.788124919E-1
2.148375344E1,7.790749669E-1,1.503149986E0,3.495250046E-1
2.150375344E1,8.205999732E-1,1.338287473E0,2.980999947E-1
2.152375344E1,8.034124970E-1,1.299237490E0,2.615250051E-1
2.154375344E1,7.423624992E-1,1.289337516E0,2.395250052E-1
2.156375344E1,6.470749974E-1,1.253999949E0,2.040500045E-1
2.158375345E1,5.517874956E-1,1.228287458E0,1.442375034E-1
2.160375345E1,6.128374934E-1,1.214812517E0,1.637624949E-1
2.162375345E1,7.948874831E-1,1.201475024E0,2.615250051E-1
2.164375344E1,8.608874679E-1,1.109762549E0,3.140499890E-1
2.166375344E1,7.411249876E-1,1.103712440E0,2.908124924E-1
2.168375344E1,6.665999889E-1,1.125712514E0,2.028124928E-1
2.170375344E1,6.422625184E-1,1.144000053E0,1.820500046E-1
2.172375344E1,6.995999813E-1,1.119524956E0,3.030500114E-1
2.174375345E1,8.034124970E-1,1.032899976E0,4.483875036E-1
2.176375345E1,8.376500010E-1,9.484750032E-1,5.216749907E-1
2.178375345E1,6.067875028E-1,8.458999991E-1,4.288625121E-1
2.180375344E1,3.196874857E-1,9.229000211E-1,2.322375029E-1
2.182375344E1,1.388749927E-1,1.092712522E0,7.576250285E-2
2.184375344E1,1.706375033E-1,1.208762527E0,6.971249729E-2
2.186375344E1,2.512125075E-1,1.153762460E0,1.051874980E-1
2.188375344E1,4.076874852E-1,1.055999994E0,2.199999988E-1
2.190375345E1,5.285499692E-1,1.038949966E0,3.933874965E-1
2.192375345E1,5.615500212E-1,1.003474951E0,4.569124877E-1
2.194375345E1,6.958875060E-1,9.436625242E-1,4.996750057E-1
2.196375345E1,7.643625140E-1,8.948500156E-1,5.131499767E-1
2.198375344E1,7.106000185E-1,9.351375103E-1,4.435749948E-1
2.200375344E1,4.907374978E-1,1.027950048E0,3.079999983E-1
2.202375344E1,3.502124846E-1,1.027950048E0,1.845249981E-1
2.204375344E1,2.182125002E-1,9.118999839E-1,4.166249931E-2
2.206375344E1,2.158750035E-2,8.849499822E-1,-5.733750015E-2
2.208375345E1,-1.567499936E-1,9.827125072E-1,-8.057499677E-2
2.210375345E1,-1.396999955E-1,1.113474965E0,-1.581249945E-2
2.212375345E1,5.582499877E-2,1.080474973E0,9.652499855E-2
2.214375344E1,3.049750030E-1,9.571374655E-1,2.175250053E-1
2.216375344E1,4.332624972E-1,8.336625099E-1,3.018124998E-1
2.218375344E1,4.577375054E-1,6.748499870E-1,2.798124850E-1
2.220375344E1,2.989250124E-1,5.368000269E-1,1.759999990E-1
2.222375344E1,1.498750001E-1,4.072749913E-1,8.552499861E-2
2.224375345E1,-1.512499992E-2,2.668874860E-1,1.471249945E-2
2.226375345E1,-1.872749925E-1,1.238875017E-1,-4.276249930E-2
2.228375345E1,-2.289374918E-1,-4.468749836E-2,-9.404999763E-2
2.230375344E1,-1.116499975E-1,-1.692624986E-1,-1.062875018E-1
2.232375344E1,6.187500060E-2,-2.890250087E-1,-6.228749827E-2
2.234375344E1,6.682500243E-2,-3.905000091E-1,-8.524999954E-3
2.236375344E1,8.387500048E-2,-5.260750055E-1,4.042499885E-2
2.238375344E1,1.523499936E-1,-7.521250248E-1,3.918749839E-2
2.240375345E1,1.913999915E-1,-9.011750221E-1,7.328750193E-2
2.242375345E1,2.536875010E-1,-1.165037513E0,1.552374959E-1
2.244375345E1,2.279749960E-1,-1.351899981E0,1.467124969E-1
2.246375345E1,1.306249946E-2,-1.422850013E0,8.662499487E-3
2.248375344E1,-3.669874966E-1,-1.413087487E0,-1.403875053E-1
2.250375344E1,-6.063749790E-1,-1.588950038E0,-2.516250014E-1
2.252375344E1,-4.230875075E-1,-2.000624895E0,-2.418625057E-1
2.254375344E1,-4.023250043E-1,-2.070337534E0,-2.564375103E-1
2.256375344E1,-8.104249835E-1,-1.962812543E0,-3.847250044E-1
2.258375345E1,-1.148812532E0,-1.829574943E0,-5.557749867E-1
2.260375345E1,-9.191874862E-1,-1.645187497E0,-4.984374940E-1
2.262375345E1,-6.148999929E-1,-1.551137447E0,-3.774375021E-1
2.264375344E1,-6.674249768E-1,-1.464375019E0,-2.846249938E-1
2.266375344E1,-6.858500242E-1,-1.630475044E0,-3.029125035E-1
2.268375344E1,-4.415124953E-1,-1.755049944E0,-2.466749996E-1
2.270375344E1,-3.278000057E-1,-1.609712481E0,-1.148125008E-1
2.272375344E1,-5.465624928E-1,-1.404425025E0,-1.183874980E-1
2.274375345E1,-8.654249907E-1,-1.253037453E0,-1.893374920E-1
2.276375345E1,-8.164749742E-1,-1.322612524E0,-1.343374997E-1
2.278375345E1,-5.148000121E-1,-1.659762502E0,-3.574999981E-3
2.280375344E1,-4.743750095E-1,-1.887050033E0,8.318749815E-2
2.282375344E1,-9.777625203E-1,-1.851575017E0,-6.586249918E-2
2.284375344E1,-1.167099953E0,-1.273800015E0,-1.050499976E-1
2.286375344E1,-7.469000220E-1,-1.296900034E0,7.424999960E-3
2.288375344E1,-5.733749866E-1,-1.654950023E0,1.259499937E-1
2.290375345E1,-8.579999804E-1,-1.873574972E0,6.723749638E-2
2.292375345E1,-9.949499965E-1,-1.745287538E0,-7.081250101E-2
2.294375345E1,-8.031374812E-1,-1.482662439E0,-3.781250119E-2
2.296375345E1,-9.154750109E-1,-1.392187476E0,-5.004999787E-2
2.298375344E1,-1.142762542E0,-1.552237511E0,-1.293874979E-1
2.300375344E1,-1.080474973E0,-1.599949956E0,-1.868624985E-1
2.302375344E1,-7.823749781E-1,-1.408137441E0,-6.833750010E-2
2.304375344E1,-6.784250140E-1,-1.240800023E0,5.018749833E-2
2.306375344E1,-8.679000139E-1,-1.288375020E0,-2.309999987E-2
2.308375345E1,-8.311874866E-1,-1.305562496E0,-6.352499872E-2
2.310375345E1,-5.318499804E-1,-1.259087443E0,1.718750037E-2
2.312375345E1,-3.095124960E-1,-1.199275017E0,1.687124968E-1
2.314375344E1,-5.478000045E-1,-1.180850029E0,1.172875017E-1
2.316375344E1,-1.018049955E0,-1.090512514E0,-8.304999769E-2
2.318375344E1,-9.216625094E-1,-1.029462457E0,-1.025749967E-1
2.320375344E1,-4.963749945E-1,-1.102749944E0,8.662499487E-3
2.322375344E1,-3.217499852E-1,-1.309137464E0,5.499999970E-2
2.324375345E1,-6.576625109E-1,-1.392325044E0,-5.486249924E-2
2.326375345E1,-8.336625099E-1,-1.232275009E0,-1.331000030E-1
2.328375345E1,-5.893250108E-1,-1.052562475E0,-3.162499890E-2
2.330375344E1,-2.972750068E-1,-1.092987537E0,1.185249984E-1
2.332375344E1,-1.947000027E-1,-1.322612524E0,1.271875054E-1
2.334375344E1,-4.230875075E-1,-1.391087532E0,4.166249931E-2
2.336375344E1,-6.393749714E-1,-1.282325029E0,2.942499891E-2
2.338375344E1,-6.026625037E-1,-1.292087436E0,2.942499891E-2
2.340375345E1,-6.956124902E-1,-1.296900034E0,-4.028749838E-2
2.342375345E1,-7.101874948E-1,-1.182087541E0,-7.686249912E-2
2.344375345E1,-5.403749943E-1,-1.070987463E0,-3.533750027E-2
2.346375345E1,-4.536125064E-1,-1.070987463E0,-4.262499884E-2
2.348375344E1,-5.538499951E-1,-1.026987553E0,-4.386249930E-2
2.350375344E1,-5.025625229E-1,-1.025750041E0,1.966249943E-2
2.352375344E1,-3.779875040E-1,-1.111274958E0,6.118749827E-2
2.354375344E1,-3.057999909E-1,-1.155274987E0,5.499999970E-2
2.356375345E1,-3.034625053E-1,-1.129562497E0,5.871250108E-2
2.358375345E1,-2.532750070E-1,-1.155274987E0,1.137124971E-1
2.360375345E1,-1.616999954E-1,-1.265137434E0,1.319999993E-1
2.362375345E1,-1.116499975E-1,-1.333612442E0,1.490499973E-1
2.364375344E1,-1.579875052E-1,-1.355612516E0,1.515250057E-1
2.366375344E1,-1.995124966E-1,-1.275037527E0,1.051874980E-1
2.368375344E1,-2.312749922E-1,-1.188274980E0,1.087625027E-1
2.370375344E1,-2.227499932E-1,-1.074562550E0,1.344749928E-1
2.372375344E1,-1.421750039E-1,-1.195562482E0,1.197625026E-1
2.374375345E1,-1.519374996E-1,-1.215087533E0,5.018749833E-2
2.376375345E1,-3.522749841E-1,-1.035512447E0,5.995000154E-2
2.378375345E1,-4.720374942E-1,-8.986999989E-1,1.099999994E-2
2.380375344E1,-4.525125027E-1,-9.047499895E-1,-4.812499974E-3
2.382375344E1,-4.658499956E-1,-9.365124702E-1,2.076249942E-2
2.384375344E1,-5.440874696E-1,-9.622250199E-1,2.076249942E-2
2.386375344E1,-6.638500094E-1,-9.194625020E-1,-1.099999994E-2
2.388375344E1,-7.908999920E-1,-9.059875011E-1,-7.933750004E-2
2.390375345E1,-8.251374960E-1,-9.537000060E-1,-1.611499935E-1
2.392375345E1,-6.540874839E-1,-8.364124894E-1,-1.038125008E-1
2.394375345E1,-4.072749913E-1,-7.704125047E-1,1.842499897E-2
2.396375345E1,-1.714625061E-1,-7.031750083E-1,1.577125043E-1
2.398375344E1,-2.969999984E-2,-5.688375235E-1,1.942874938E-1
2.400375344E1,-3.588749841E-2,-4.185499847E-1,1.747625023E-1
2.402375344E1,-1.189374998E-1,-1.534499973E-1,1.062875018E-1
2.404375344E1,-1.017500013E-1,1.128875017E-1,-1.237499993E-3
2.406375345E1,-1.512499992E-2,4.012250006E-1,-1.013374999E-1
2.408375345E1,8.387500048E-2,6.516125202E-1,-1.282874942E-1
2.410375345E1,1.791625023E-1,8.751875162E-1,-1.000999957E-1
2.412375345E1,2.707374990E-1,1.126950026E0,-6.586249918E-2
2.414375344E1,2.915000021E-1,1.296762466E0,-8.181250095E-2
2.416375344E1,2.804999948E-1,1.410337448E0,-1.599124968E-1
2.418375344E1,2.586374879E-1,1.564337492E0,-1.991000026E-1
2.420375344E1,2.169750035E-1,1.737725019E0,-1.746249944E-1
2.422375344E1,2.194499969E-1,1.985774994E0,-1.281500012E-1
2.424375345E1,3.624500036E-1,2.172637463E0,-6.104999781E-2
2.426375345E1,5.895999670E-1,2.245924950E0,3.299999982E-2
2.428375345E1,7.888374925E-1,2.238637447E0,1.027124971E-1
2.430375344E1,9.414625168E-1,2.220350027E0,1.564749926E-1
2.432375344E1,1.101512551E0,2.228874922E0,2.138125002E-1
2.434375344E1,1.033174992E0,2.188587427E0,1.589500010E-1
2.436375344E1,9.402250051E-1,2.274112463E0,1.247124970E-1
2.438375344E1,8.731250167E-1,2.314399958E0,7.947500050E-2
2.440375345E1,8.413624763E-1,2.285112381E0,7.823749632E-2
2.442375345E1,9.134125113E-1,2.269162416E0,1.430000067E-1
2.444375345E1,1.047749996E0,2.195874929E0,2.455749959E-1
2.446375345E1,9.904124737E-1,2.035825014E0,1.797125041E-1
2.448375344E1,8.718875051E-1,2.037062407E0,1.417624950E-1
2.450375344E1,8.548374772E-1,2.123825073E0,1.942874938E-1
2.452375344E1,9.109374881E-1,2.087112427E0,2.455749959E-1
2.454375344E1,9.366499782E-1,1.932012439E0,3.005749881E-1
2.456375345E1,8.657000065E-1,1.762199998E0,2.212374955E-1
2.458375345E1,8.241750002E-1,1.806200027E0,1.747625023E-1
2.460375345E1,8.266500235E-1,1.883199930E0,1.905750036E-1
2.462375345E1,8.144124746E-1,1.847725034E0,2.725250125E-1
2.464375344E1,9.158874750E-1,1.594862461E0,3.702875078E-1
2.466375344E1,9.964625239E-1,1.372524977E0,3.702875078E-1
2.468375344E1,9.939875007E-1,1.207525015E0,3.702875078E-1
2.470375344E1,9.451749921E-1,1.202712536E0,3.262875080E-1
2.472375344E1,8.241750002E-1,1.210000038E0,2.480500042E-1
2.474375345E1,7.423624992E-1,1.246574998E0,2.199999988E-1
2.476375345E1,7.265499830E-1,1.225812435E0,2.028124928E-1
2.478375345E1,7.020750046E-1,1.146474957E0,1.820500046E-1
2.480375344E1,6.556000113E-1,1.115949988E0,1.649999917E-1
2.482375344E1,6.312624812E-1,1.104949951E0,1.380500048E-1
2.484375344E1,5.370749831E-1,1.082949996E0,1.222374961E-1
2.486375344E1,5.200250149E-1,1.129287481E0,1.979999989E-1
2.488375344E1,6.348375082E-1,1.124475002E0,2.945249975E-1
2.490375345E1,7.057874799E-1,1.042662501E0,3.482874930E-1
2.492375345E1,6.678375006E-1,9.864249825E-1,3.335750103E-1
2.494375345E1,6.055499911E-1,9.644249678E-1,2.980999947E-1
2.496375345E1,6.373124719E-1,9.949499965E-1,2.700499892E-1
2.498375344E1,6.128374934E-1,1.082949996E0,2.540999949E-1
2.500375344E1,5.224999785E-1,1.124475002E0,2.235749960E-1
2.502375344E1,3.979249895E-1,1.115949988E0,1.759999990E-1
2.504375344E1,4.614500105E-1,1.129287481E0,1.905750036E-1
2.506375345E1,5.335000157E-1,1.128187537E0,2.212374955E-1
2.508375345E1,6.104999781E-1,1.031662464E0,2.553375065E-1
2.510375345E1,7.143124938E-1,9.131374955E-1,2.847625017E-1
2.512375345E1,6.703125238E-1,7.848500013E-1,2.542375028E-1
2.514375344E1,5.212625265E-1,7.836124897E-1,1.857624948E-1
2.516375344E1,4.467374980E-1,9.411875010E-1,1.124750003E-1
2.518375344E1,4.222624898E-1,1.154999971E0,4.895000160E-2
2.520375344E1,3.147374988E-1,1.227049947E0,3.299999982E-2
2.522375344E1,1.779250056E-1,1.289337516E0,7.424999960E-3
2.524375345E1,1.974499971E-1,1.272287488E0,5.499999970E-2
2.526375345E1,3.734500110E-1,1.136712551E0,1.124750003E-1
2.528375345E1,5.383124948E-1,9.559000134E-1,1.027124971E-1
2.530375344E1,5.995000005E-1,9.607124925E-1,1.381874979E-1
2.532375344E1,5.933125019E-1,9.167125225E-1,1.369500011E-1
2.534375344E1,5.102624893E-1,8.923749924E-1,6.723749638E-2
2.536375344E1,3.722124994E-1,9.289500117E-1,2.571249940E-2
2.538375344E1,3.111625016E-1,1.113474965E0,2.942499891E-2
2.540375345E1,3.209249973E-1,1.179474950E0,7.218749821E-2
2.542375345E1,3.319250047E-1,1.150187492E0,1.271875054E-1
2.544375345E1,3.954499960E-1,1.032899976E0,1.820500046E-1
2.546375345E1,5.237374902E-1,8.776624799E-1,2.017125040E-1
2.548375344E1,6.080250144E-1,7.591375113E-1,1.992374957E-1
2.550375344E1,5.908374786E-1,6.846125126E-1,1.600500047E-1
2.552375344E1,4.345000088E-1,6.980875134E-1,8.552499861E-2
2.554375344E1,2.476374954E-1,6.846125126E-1,-1.581249945E-2
2.556375345E1,1.583999991E-1,6.810374856E-1,-8.662500232E-2
2.558375345E1,2.084500045E-1,6.590374708E-1,-7.562500238E-2
2.560375345E1,4.064500034E-1,4.170374870E-1,-3.533750027E-2
2.562375345E1,3.929750025E-1,1.616999954E-1,-3.052499890E-2
2.564375344E1,1.583999991E-1,-5.444999784E-2,-3.176249936E-2
2.566375344E1,-3.712499887E-2,-3.867875040E-1,-1.025749967E-1
2.568375344E1,-1.629374921E-1,-6.714124680E-1,-1.918125004E-1
2.570375344E1,-2.167000026E-1,-8.742250204E-1,-2.161500007E-1
2.572375344E1,-1.201749966E-1,-9.634624720E-1,-1.709125042E-1
2.574375345E1,8.882500231E-2,-1.112512469E0,-1.135749966E-1
2.576375345E1,8.635000139E-2,-1.307899952E0,-1.220999956E-1
2.578375345E1,-1.995124966E-1,-1.320137501E0,-2.369125038E-1
2.580375344E1,-4.635125101E-1,-1.298137546E0,-3.249124885E-1
2.582375344E1,-5.293750167E-1,-1.571900010E0,-3.689124882E-1
2.584375344E1,-4.866124988E-1,-1.785712481E0,-3.786749840E-1
2.586375344E1,-6.356624961E-1,-1.862574935E0,-3.383874893E-1
2.588375344E1,-9.362375140E-1,-1.915099978E0,-4.043875039E-1
2.590375345E1,-1.058475018E0,-1.797812462E0,-5.302000046E-1
2.592375345E1,-9.007624984E-1,-1.574237466E0,-5.594875216E-1
2.594375345E1,-8.837124705E-1,-1.422850013E0,-5.570124984E-1
2.596375345E1,-1.001000047E0,-1.288375020E0,-5.949624777E-1
2.598375344E1,-8.214250207E-1,-1.445950031E0,-5.643000007E-1
2.600375344E1,-3.034625053E-1,-1.649999976E0,-3.701499999E-1
2.602375344E1,-3.095124960E-1,-1.769762516E0,-2.809124887E-1
2.604375344E1,-6.943749785E-1,-1.498612523E0,-3.224374950E-1
2.606375345E1,-7.431874871E-1,-1.293324947E0,-3.286249936E-1
2.608375345E1,-3.889875114E-1,-1.478950024E0,-2.051499933E-1
2.610375345E1,-4.745124876E-1,-1.829574943E0,-2.113374919E-1
2.612375345E1,-8.604750037E-1,-1.744050026E0,-3.066250086E-1
2.614375344E1,-9.179499745E-1,-1.514425039E0,-3.737249970E-1
2.616375344E1,-6.638500094E-1,-1.515662551E0,-2.991999984E-1
2.618375344E1,-6.223250031E-1,-1.816237450E0,-2.088624984E-1
2.620375344E1,-8.849499822E-1,-2.006812572E0,-2.858625054E-1
2.622375345E1,-9.154750109E-1,-1.979862452E0,-3.921499848E-1
2.624375345E1,-6.919000149E-1,-1.821050048E0,-3.469125032E-1
2.626375345E1,-8.018999696E-1,-1.981099963E0,-3.933874965E-1
2.628375345E1,-1.026712537E0,-2.143625021E0,-4.959625006E-1
2.630375344E1,-9.534249902E-1,-2.077625036E0,-4.849624932E-1
2.632375344E1,-6.454250216E-1,-1.997050047E0,-3.396250010E-1
2.634375344E1,-6.344249845E-1,-1.841812491E0,-2.723875046E-1
2.636375344E1,-8.837124705E-1,-1.621950030E0,-3.359124959E-1
2.638375344E1,-8.531875014E-1,-1.540137529E0,-3.749625087E-1
2.640375345E1,-7.188500166E-1,-1.625662446E0,-3.969624937E-1
2.642375345E1,-6.663249731E-1,-1.761237502E0,-3.627249897E-1
2.644375345E1,-6.686624885E-1,-1.612187505E0,-3.799124956E-1
2.646375345E1,-5.880874991E-1,-1.359325051E0,-2.869625092E-1
2.648375344E1,-4.598000050E-1,-1.293324947E0,-1.489125043E-1
2.650375344E1,-6.271374822E-1,-1.439900041E0,-1.953874975E-1
2.652375344E1,-7.786625028E-1,-1.394662499E0,-2.626250088E-1
2.654375344E1,-6.393749714E-1,-1.158849955E0,-2.039124966E-1
2.656375345E1,-2.727999985E-1,-9.646999836E-1,-4.262499884E-2
2.658375345E1,-1.727000028E-1,-9.719874859E-1,5.018749833E-2
2.660375345E1,-3.290374875E-1,-1.003749967E0,4.895000160E-2
2.662375345E1,-7.078499794E-1,-9.769374728E-1,-5.115000159E-2
2.664375344E1,-9.570000172E-1,-9.524624944E-1,-1.501500010E-1
2.666375344E1,-8.922374845E-1,-9.842249751E-1,-2.173874974E-1
2.668375344E1,-7.444249988E-1,-1.078274965E0,-2.039124966E-1
2.670375344E1,-6.393749714E-1,-1.045274973E0,-1.000999957E-1
2.672375345E1,-4.573250115E-1,-9.572749734E-1,3.795000166E-2
2.674375345E1,-3.132250011E-1,-9.952250123E-1,1.197625026E-1
2.676375345E1,-3.572250009E-1,-1.110037446E0,1.197625026E-1
2.678375345E1,-3.913249969E-1,-1.184562445E0,7.699999958E-2
2.680375344E1,-4.512749910E-1,-1.234612465E0,-2.804999985E-2
2.682375344E1,-5.062749982E-1,-1.147987485E0,-1.403875053E-1
2.684375344E1,-4.842749834E-1,-9.879375100E-1,-1.880999953E-1
2.686375344E1,-4.170374870E-1,-9.817500114E-1,-2.271499932E-1
2.688375344E1,-3.645125031E-1,-1.074562550E0,-2.319625020E-1
2.690375345E1,-3.485625088E-1,-1.110037446E0,-2.014375031E-1
2.692375345E1,-2.912249863E-1,-1.094225049E0,-2.001999915E-1
2.694375345E1,-3.082749844E-1,-1.068512440E0,-2.613874972E-1
2.696375345E1,-3.925625086E-1,-1.072224975E0,-3.456749916E-1
2.698375344E1,-4.817999899E-1,-8.839874864E-1,-3.651999831E-1
2.700375344E1,-5.392749906E-1,-7.386500239E-1,-3.394874930E-1
2.702375344E1,-5.160375237E-1,-7.361750007E-1,-2.857249975E-1
2.704375344E1,-4.280374944E-1,-7.728874683E-1,-2.441999912E-1
2.706375345E1,-3.718000054E-1,-7.643625140E-1,-2.319625020E-1
2.708375345E1,-2.912249863E-1,-7.594124675E-1,-2.576749921E-1
2.710375345E1,-2.520374954E-1,-8.266500235E-1,-2.906749845E-1
2.712375345E1,-2.642749846E-1,-9.414625168E-1,-3.346749842E-1
2.714375344E1,-3.132250011E-1,-1.062462449E0,-3.444375098E-1
2.716375344E1,-4.010874927E-1,-1.072224975E0,-3.396250010E-1
2.718375344E1,-5.893250108E-1,-1.020799994E0,-2.931500077E-1
2.720375344E1,-6.491374969E-1,-7.594124675E-1,-2.271499932E-1
2.722375345E1,-3.803249896E-1,-4.027374983E-1,-3.542000055E-1
2.724375345E1,-8.593750000E-2,-1.704999954E-1,-3.176249862E-1
2.726375345E1,7.535000145E-2,-4.716249928E-2,-2.369125038E-1
2.728375345E1,5.582499877E-2,1.649999991E-3,-1.831499934E-1
2.730375344E1,-1.746249944E-2,2.472250015E-1,-1.953874975E-1
2.732375344E1,-1.311749965E-1,5.368000269E-1,-2.248124927E-1
2.734375344E1,-2.814624906E-1,7.921375036E-1,-2.211000025E-1
2.736375344E1,-4.182749987E-1,9.571374655E-1,-2.063875049E-1
2.738375344E1,-5.000874996E-1,1.090237498E0,-2.406249940E-1
2.740375345E1,-3.987500072E-1,1.400575042E0,-7.686249912E-2
2.742375345E1,-8.841250092E-2,1.486099958E0,1.577125043E-1
2.744375345E1,3.086875081E-1,1.449387550E0,2.455749959E-1
2.746375345E1,5.187875032E-1,1.445812464E0,2.505249977E-1
2.748375344E1,5.065500140E-1,1.570387483E0,2.432374954E-1
2.750375344E1,4.564999938E-1,1.781725049E0,2.480500042E-1
2.752375344E1,4.357374907E-1,1.916200042E0,2.505249977E-1
2.754375344E1,4.039750099E-1,1.812250018E0,2.212374955E-1
2.756375345E1,4.504500031E-1,1.679149985E0,1.905750036E-1
2.758375345E1,5.310249925E-1,1.705962539E0,2.040500045E-1
2.760375345E1,4.980250001E-1,1.861199975E0,2.468124926E-1
2.762375345E1,4.174500108E-1,1.945487499E0,3.702875078E-1
2.764375344E1,3.782624900E-1,1.897774935E0,4.263874888E-1
2.766375344E1,3.954499960E-1,1.839200020E0,4.020499885E-1
2.768375344E1,3.770250082E-1,1.862437487E0,3.836250007E-1
2.770375344E1,2.793999910E-1,1.903962493E0,3.580499887E-1
2.772375345E1,3.037374914E-1,2.040775061E0,4.093374908E-1
2.774375345E1,4.650250077E-1,1.990725040E0,4.545750022E-1
2.776375345E1,6.837875247E-1,1.846487522E0,5.033875108E-1
2.778375345E1,8.303624988E-1,1.806200027E0,5.511000156E-1
2.780375344E1,7.423624992E-1,1.747487545E0,5.266249776E-1
2.782375344E1,5.468375087E-1,1.696200013E0,4.276250005E-1
2.784375344E1,5.297874808E-1,1.696200013E0,3.715249896E-1
2.786375344E1,5.444999933E-1,1.730437517E0,3.750999868E-1
2.788375344E1,5.554999709E-1,1.693724990E0,3.788124919E-1
2.790375345E1,6.140750051E-1,1.691387534E0,4.056249857E-1
2.792375345E1,6.470749974E-1,1.660862446E0,4.801499844E-1
2.794375345E1,5.273125172E-1,1.597200036E0,4.508624971E-1
2.796375345E1,4.405499995E-1,1.561862469E0,3.946250081E-1
2.798375344E1,4.417875111E-1,1.550862551E0,3.788124919E-1
2.800375344E1,5.457375050E-1,1.466575027E0,4.020499885E-1
2.802375344E1,4.809750021E-1,1.434812546E0,3.348124921E-1
2.804375344E1,3.465000093E-1,1.495862484E0,3.495250046E-1
2.806375345E1,3.795000017E-1,1.482387543E0,3.860999942E-1
2.808375345E1,4.357374907E-1,1.449387550E0,4.020499885E-1
2.810375345E1,4.515500069E-1,1.396862507E0,4.130499959E-1
2.812375345E1,4.307875037E-1,1.315050006E0,4.105750024E-1
2.814375344E1,4.259749949E-1,1.285762548E0,4.179999828E-1
2.816375344E1,4.039750099E-1,1.285762548E0,4.680500031E-1
2.818375344E1,3.867875040E-1,1.317525029E0,5.143874884E-1
2.820375344E1,4.100250006E-1,1.384624958E0,5.205749869E-1
2.822375345E1,4.503124952E-1,1.426287532E0,5.120499730E-1
2.824375345E1,5.322625041E-1,1.327287436E0,5.070999861E-1
2.826375345E1,5.652624965E-1,1.285762548E0,5.132874846E-1
2.828375345E1,5.872625113E-1,1.273525000E0,5.168625116E-1
2.830375344E1,6.311249733E-1,1.284525037E0,5.291000009E-1
2.832375344E1,5.872625113E-1,1.279574990E0,5.035250187E-1
2.834375344E1,4.845499992E-1,1.262524962E0,4.350500107E-1
2.836375344E1,4.162124991E-1,1.266237497E0,3.397625089E-1
2.838375345E1,3.489750028E-1,1.315050006E0,3.690499961E-1
2.840375345E1,3.489750028E-1,1.396862507E0,5.755749941E-1
2.842375345E1,4.162124991E-1,1.174525023E0,5.120499730E-1
2.844375345E1,5.590749979E-1,1.086524963E0,4.961000085E-1
2.846375345E1,5.872625113E-1,1.115949988E0,5.143874884E-1
2.848375344E1,4.283125103E-1,1.113474965E0,4.717625082E-1
2.850375344E1,3.062124848E-1,1.106187463E0,4.289999902E-1
2.852375344E1,2.036374956E-1,1.093950033E0,3.007124960E-1
2.854375344E1,-3.464999795E-2,1.100000024E0,1.834249943E-1
2.856375345E1,-2.899875045E-1,1.047474980E0,1.064250022E-1
2.858375345E1,-3.205125034E-1,1.042662501E0,9.913749993E-2
2.860375345E1,-2.044624984E-1,1.080474973E0,1.101374999E-1
2.862375345E1,-4.688749835E-2,1.011999965E0,1.857624948E-1
2.864375344E1,7.287500054E-2,8.531875014E-1,2.675749958E-1
2.866375344E1,1.351625025E-1,7.665625215E-1,3.518624902E-1
2.868375344E1,1.816374958E-1,7.616124749E-1,3.738625050E-1
2.870375344E1,1.852124929E-1,7.933750153E-1,3.495250046E-1
2.872375345E1,9.487500042E-2,7.653250098E-1,3.140499890E-1
2.874375345E1,-2.117500082E-2,6.748499870E-1,2.920500040E-1
2.876375345E1,-8.470000327E-2,5.735124946E-1,2.860000134E-1
2.878375345E1,-3.836249933E-2,4.012250006E-1,1.955250055E-1
2.880375344E1,-3.946249932E-2,3.327499926E-1,1.271875054E-1
2.882375344E1,-1.029874980E-1,3.414124846E-1,8.923749626E-2
2.884375344E1,-1.665125042E-1,3.071750104E-1,2.089999989E-2
2.886375344E1,-1.567499936E-1,1.666499972E-1,-6.833750010E-2
2.888375345E1,-1.869999990E-2,-8.373750001E-2,-5.609999970E-2
2.890375345E1,7.535000145E-2,-3.452624977E-1,-2.928750031E-2
2.892375345E1,-1.649999991E-3,-5.443624854E-1,-5.252499878E-2
2.894375345E1,-5.912499875E-2,-6.348375082E-1,-9.762500226E-2
2.896375345E1,1.911249943E-2,-7.093625069E-1,-1.098624989E-1
2.898375344E1,1.694000065E-1,-9.109374881E-1,-1.331000030E-1
2.900375344E1,3.147374988E-1,-1.216325045E0,-1.733874977E-1
2.902375344E1,4.442625046E-1,-1.459424973E0,-1.771000028E-1
2.904375344E1,4.980250001E-1,-1.725762486E0,-1.905750036E-1
2.906375345E1,1.254000068E-1,-1.725762486E0,-2.466749996E-1
2.908375345E1,-4.292750061E-1,-1.540137529E0,-3.481499851E-1
2.910375345E1,-3.962749839E-1,-1.580425024E0,-3.444375098E-1
2.912375345E1,3.011249937E-2,-1.988387465E0,-3.041499853E-1
2.914375344E1,-1.531749964E-1,-2.117912531E0,-3.689124882E-1
2.916375344E1,-7.517125010E-1,-1.860237479E0,-5.460125208E-1
2.918375344E1,-9.129999876E-1,-1.599949956E0,-5.594875216E-1
2.920375344E1,-2.276999950E-1,-1.817474961E0,-3.078624904E-1
2.922375345E1,-1.409374923E-1,-1.992100000E0,-1.746249944E-1
2.924375345E1,-7.004249692E-1,-2.069099903E0,-3.016749918E-1
2.926375345E1,-1.154999971E0,-1.937099934E0,-4.384875000E-1
2.928375345E1,-8.544250131E-1,-1.844287515E0,-3.407250047E-1
2.930375344E1,-5.733749866E-1,-1.813762546E0,-5.609999970E-2
2.932375344E1,-1.095049977E0,-2.027575016E0,-2.393874973E-1
2.934375344E1,-1.450624943E0,-2.073912382E0,-4.764375091E-1
2.936375344E1,-9.069499969E-1,-2.028812408E0,-4.384875000E-1
2.938375345E1,-4.525125027E-1,-1.881000042E0,-2.784374952E-1
2.940375345E1,-7.713750005E-1,-1.876049995E0,-2.796750069E-1
2.942375345E1,-1.308862448E0,-1.846762538E0,-4.666749835E-1
2.944375345E1,-9.484750032E-1,-1.759999990E0,-4.714874923E-1
2.946375345E1,-5.733749866E-1,-1.564474940E0,-3.664374948E-1
2.948375344E1,-5.183749795E-1,-1.530375004E0,-2.100999951E-1
2.950375344E1,-4.450874925E-1,-1.725762486E0,-5.733750015E-2
2.952375344E1,-6.406124830E-1,-1.845525026E0,-1.551000029E-1
2.954375344E1,-8.372374773E-1,-1.518137455E0,-2.003374994E-1
2.956375345E1,-5.330874920E-1,-1.328662515E0,-1.061500013E-1
2.958375345E1,-7.493750006E-2,-1.477712512E0,4.166249931E-2
2.960375345E1,-1.512499992E-2,-1.736762524E0,8.566249907E-2
2.962375345E1,-7.737125158E-1,-1.746525049E0,-1.331000030E-1
2.964375344E1,-1.123237491E0,-1.474137545E0,-2.846249938E-1
2.966375344E1,-8.739500046E-1,-1.261562467E0,-2.331999987E-1
2.968375344E1,-4.010874927E-1,-1.355612516E0,-9.281250089E-2
2.970375344E1,-1.666499972E-1,-1.497375011E0,-1.457499992E-2
2.972375345E1,-3.815625012E-1,-1.604900002E0,-1.049124971E-1
2.974375345E1,-9.814749956E-1,-1.406900048E0,-2.748624980E-1
2.976375345E1,-1.062049985E0,-1.199275017E0,-3.284874856E-1
2.978375345E1,-8.494749665E-1,-1.101512551E0,-2.881999910E-1
2.980375344E1,-6.406124830E-1,-1.112512469E0,-2.613874972E-1
2.982375344E1,-4.560874999E-1,-1.204087496E0,-2.308624983E-1
2.984375344E1,-3.352249861E-1,-1.262799978E0,-1.465750039E-1
2.986375344E1,-3.632749915E-1,-1.264037490E0,-8.304999769E-2
2.988375345E1,-5.990874767E-1,-1.196799994E0,-1.453374922E-1
2.990375345E1,-9.789999723E-1,-1.053799987E0,-2.259124964E-1
2.992375345E1,-1.108525038E0,-1.039224982E0,-2.919124961E-1
2.994375345E1,-6.943749785E-1,-1.035512447E0,-2.943874896E-1
2.996375345E1,-2.191749960E-1,-9.989374876E-1,-1.599124968E-1
2.998375344E1,4.839999974E-2,-1.057512522E0,-1.099999994E-3
3.000375344E1,1.278750002E-1,-1.177274942E0,1.099999994E-1
3.002375344E1,3.616249934E-2,-1.279850006E0,1.405249983E-1
3.004375344E1,-3.315125108E-1,-1.239562511E0,6.599999964E-2
3.006375345E1,-5.013250113E-1,-1.070987463E0,-6.338749826E-2
3.008375345E1,-3.180375099E-1,-9.622250199E-1,-1.366750002E-1
3.010375345E1,-6.764999777E-2,-9.976999760E-1,-1.733874977E-1
3.012375345E1,5.211250111E-2,-1.014750004E0,-9.638749808E-2
3.014375344E1,-4.069999978E-2,-1.062462449E0,-8.181250095E-2
3.016375344E1,-2.276999950E-1,-1.050225019E0,-1.355749965E-1
3.018375344E1,-4.365625083E-1,-9.451749921E-1,-1.868624985E-1
3.020375344E1,-5.880874991E-1,-8.449375033E-1,-2.589125037E-1
3.022375345E1,-6.308500171E-1,-8.461750150E-1,-2.821500003E-1
3.024375345E1,-6.028000116E-1,-8.522250056E-1,-2.516250014E-1
3.026375345E1,-5.183749795E-1,-8.607500196E-1,-1.403875053E-1
3.028375345E1,-3.975124955E-1,-9.244124889E-1,-6.338749826E-2
3.030375344E1,-2.619374990E-1,-8.804125190E-1,-6.710000336E-2
3.032375344E1,-1.409374923E-1,-7.936499715E-1,-6.104999781E-2
3.034375344E1,-8.964999765E-2,-7.728874683E-1,-1.828750037E-2
3.036375344E1,-9.088750184E-2,-8.754624724E-1,5.747500062E-2
3.038375345E1,-3.464999795E-2,-9.829875231E-1,9.666249901E-2
3.040375345E1,2.516249940E-2,-9.426999688E-1,1.442375034E-1
3.042375345E1,7.163749635E-2,-8.607500196E-1,1.539999992E-1
3.044375345E1,1.363999993E-1,-7.361750007E-1,1.234750003E-1
3.046375345E1,1.766874939E-1,-5.113624930E-1,1.234750003E-1
3.048375344E1,1.644500047E-1,-3.807374835E-1,9.295000136E-2
3.050375344E1,1.046374962E-1,-3.244999945E-1,-4.812499974E-3
3.052375344E1,2.034999989E-2,-2.059749961E-1,-1.416250020E-1
3.054375345E1,-9.212499857E-2,8.236250281E-2,-3.064875007E-1
3.056375345E1,-2.496999949E-1,4.879874885E-1,-4.067249894E-1
3.058375345E1,-2.411749959E-1,1.003474951E0,-3.163875043E-1
3.060375345E1,-5.788749829E-2,1.206287503E0,-1.831499934E-1
3.062375345E1,1.511124969E-1,1.212474942E0,-9.528750181E-2
3.064375344E1,2.903999984E-1,1.196524978E0,-3.574999981E-3
3.066375344E1,3.819749951E-1,1.294287443E0,4.276249930E-2
3.068375344E1,3.807374835E-1,1.469050050E0,-1.704999991E-2
3.070375344E1,3.196874857E-1,1.653437495E0,4.949999973E-3
3.072375345E1,3.477374911E-1,1.734149933E0,1.282874942E-1
3.074375345E1,4.687374830E-1,1.685199976E0,1.845249981E-1
3.076375345E1,5.957875252E-1,1.631437540E0,2.114749998E-1
3.078375345E1,7.020750046E-1,1.820775032E0,2.895750105E-1
3.080375344E1,7.618874907E-1,1.938062549E0,3.910500109E-1
3.082375344E1,8.010749817E-1,1.952775002E0,4.203374982E-1
3.084375344E1,7.924125195E-1,1.965012431E0,4.056249857E-1
3.086375344E1,6.800749898E-1,1.987012506E0,3.616249859E-1
3.088375345E1,5.420249701E-1,2.039537430E0,3.103374839E-1
3.090375345E1,6.043124795E-1,2.210587502E0,3.715249896E-1
3.092375345E1,7.338374853E-1,2.076112509E0,3.788124919E-1
3.094375345E1,7.558375001E-1,1.888012528E0,3.482874930E-1
3.096375345E1,7.375500202E-1,1.957725048E0,3.531000018E-1
3.098375344E1,7.595499754E-1,2.094537497E0,3.763374984E-1
3.100375344E1,6.910749674E-1,2.037062407E0,3.495250046E-1
3.102375344E1,6.177874804E-1,2.005300045E0,3.275249898E-1
3.104375345E1,5.420249701E-1,1.905200005E0,2.969999909E-1
3.106375345E1,5.578374863E-1,1.945487499E0,3.323374987E-1
3.108375345E1,6.678375006E-1,2.059062481E0,4.240500033E-1
3.110375345E1,8.951249719E-1,1.923487544E0,5.095750093E-1
3.112375345E1,9.231749773E-1,1.683962464E0,4.240500033E-1
3.114375344E1,7.496500015E-1,1.550862551E0,2.932874858E-1
3.116375344E1,6.213625073E-1,1.791487455E0,2.688125074E-1
3.118375344E1,5.700749755E-1,1.908774972E0,3.470500112E-1
3.120375344E1,6.348375082E-1,1.754912496E0,3.836250007E-1
3.122375345E1,7.363125086E-1,1.459149957E0,2.835249901E-1
3.124375345E1,5.895999670E-1,1.476337433E0,2.480500042E-1
3.126375345E1,4.614500105E-1,1.668149948E0,2.957625091E-1
3.128375345E1,4.822124839E-1,1.792724967E0,3.225750029E-1
3.130375344E1,5.029749870E-1,1.696200013E0,2.895750105E-1
3.132375344E1,6.055499911E-1,1.537387490E0,3.823874891E-1
3.134375344E1,8.364124894E-1,1.532575011E0,5.058624744E-1
3.136375344E1,9.085999727E-1,1.480049968E0,6.036249995E-1
3.138375345E1,9.036499858E-1,1.345574975E0,6.646749973E-1
3.140375345E1,8.328375220E-1,1.227049947E0,6.096749902E-1
3.142375345E1,7.313625216E-1,1.276000023E0,4.215750098E-1
3.144375345E1,6.410250068E-1,1.338287473E0,3.690499961E-1
3.146375345E1,6.092625260E-1,1.283287525E0,3.788124919E-1
3.148375344E1,6.617875099E-1,1.210000038E0,3.665750027E-1
3.150375344E1,7.253124714E-1,1.194049954E0,3.115749955E-1
3.152375344E1,6.605499983E-1,1.234475017E0,2.847625017E-1
3.154375345E1,5.505499840E-1,1.310099959E0,2.419999987E-1
3.156375345E1,5.737875104E-1,1.238049984E0,2.688125074E-1
3.158375345E1,6.348375082E-1,1.044999957E0,2.860000134E-1
3.160375345E1,6.837875247E-1,1.062187552E0,3.348124921E-1
3.162375345E1,7.863624692E-1,1.167237520E0,4.740999937E-1
3.164375344E1,8.559374809E-1,1.063424945E0,3.128125072E-1
3.166375344E1,7.203624845E-1,1.076762438E0,2.175250053E-1
3.168375344E1,5.578374863E-1,1.113474965E0,1.454750001E-1
3.170375344E1,5.065500140E-1,1.133000016E0,9.776250273E-2
3.172375345E1,5.640249848E-1,1.223474979E0,1.687124968E-1
3.174375345E1,5.554999709E-1,1.261287451E0,2.370499969E-1
3.176375345E1,4.577375054E-1,1.203812480E0,2.529999912E-1
3.178375345E1,4.185499847E-1,1.086524963E0,2.029500008E-1
3.180375344E1,4.185499847E-1,1.003474951E0,1.087625027E-1
3.182375344E1,3.379749954E-1,9.851874709E-1,7.699999958E-2
3.184375344E1,3.196874857E-1,9.778999686E-1,1.014750004E-1
3.186375344E1,3.184500039E-1,9.924749732E-1,1.392875016E-1
3.188375345E1,3.269749880E-1,9.399499893E-1,1.577125043E-1
3.190375345E1,2.952125072E-1,7.958499789E-1,1.662375033E-1
3.192375345E1,1.986874938E-1,6.700375080E-1,1.527625024E-1
3.194375345E1,8.016250283E-2,5.978500247E-1,1.051874980E-1
3.196375345E1,1.461624950E-1,6.175125241E-1,5.623750016E-2
3.198375344E1,3.037374914E-1,6.480374932E-1,8.195000142E-2
3.200375344E1,4.405499995E-1,7.555624843E-1,9.776250273E-2
3.202375345E1,4.723125100E-1,8.361374736E-1,4.895000160E-2
3.204375344E1,4.002625048E-1,8.751875162E-1,1.347499993E-2
3.206375344E1,1.876875013E-1,9.351375103E-1,1.051874980E-1
3.208375344E1,8.016250283E-2,8.618500233E-1,2.872374952E-1
3.210375344E1,1.193500012E-1,6.406124830E-1,4.142875075E-1
3.212375345E1,2.744500041E-1,3.022249937E-1,4.448125064E-1
3.214375344E1,3.746874928E-1,-1.241625026E-1,3.837625086E-1
3.216375345E1,1.938749999E-1,-6.128374934E-1,2.652375102E-1
3.218375344E1,-1.689874977E-1,-8.436999917E-1,7.218749821E-2
3.220375345E1,-4.170374870E-1,-9.316999912E-1,-1.453374922E-1
3.222375344E1,-4.927999973E-1,-9.902749658E-1,-3.102000058E-1
3.224375344E1,-4.085125029E-1,-1.026987553E0,-3.029125035E-1
3.226375344E1,-3.180375099E-1,-1.180850029E0,-2.076250017E-1
3.228375344E1,-4.548499882E-1,-1.361662507E0,-2.234375030E-1
3.230375345E1,-5.710374713E-1,-1.365375042E0,-2.956250012E-1
3.232375344E1,-6.198499799E-1,-1.455850005E0,-2.943874896E-1
3.234375345E1,-7.078499794E-1,-1.912762523E0,-4.299624860E-1
3.236375344E1,-6.723750234E-1,-2.102099895E0,-4.409624934E-1
3.238375344E1,-4.182749987E-1,-2.050812483E0,-3.579125106E-1
3.240375344E1,-5.270375013E-1,-2.048337460E0,-3.822500110E-1
3.242375344E1,-9.534249902E-1,-2.095912457E0,-5.900124907E-1
3.244375344E1,-1.154999971E0,-2.014100075E0,-7.768750191E-1
3.246375344E1,-9.887624979E-1,-1.858999968E0,-7.988749743E-1
3.248375345E1,-6.356624961E-1,-1.630475044E0,-5.752999783E-1
3.250375344E1,-6.393749714E-1,-1.573137522E0,-4.677749872E-1
3.252375345E1,-9.252374768E-1,-1.510712504E0,-4.702500105E-1
3.254375344E1,-7.261375189E-1,-1.678187490E0,-4.311999977E-1
3.256375344E1,-3.852750063E-1,-1.774712443E0,-3.163875043E-1
3.258375344E1,-5.135625005E-1,-1.799049973E0,-2.858625054E-1
3.260375344E1,-7.994250059E-1,-1.647662520E0,-3.077250123E-1
3.262375345E1,-6.491374969E-1,-1.624424934E0,-2.894375026E-1
3.264375344E1,-5.905625224E-1,-1.758762479E0,-2.723875046E-1
3.266375345E1,-7.358999848E-1,-1.723287463E0,-2.063875049E-1
3.268375344E1,-6.430875063E-1,-1.777050018E0,-1.501500010E-1
3.270375345E1,-2.496999949E-1,-1.854050040E0,-2.309999987E-2
3.272375344E1,-3.937999904E-1,-1.854050040E0,-3.904999793E-2
3.274375344E1,-8.384749889E-1,-1.802762508E0,-2.136749923E-1
3.276375344E1,-8.909999728E-1,-1.797812462E0,-3.396250010E-1
3.278375344E1,-5.220875144E-1,-1.764812469E0,-2.113374919E-1
3.280375345E1,-2.472250015E-1,-1.602424979E0,1.718750037E-2
3.282375344E1,-6.674249768E-1,-1.698949933E0,-9.638749808E-2
3.284375345E1,-1.146337509E0,-1.592662454E0,-2.418625057E-1
3.286375344E1,-9.717124701E-1,-1.499712467E0,-3.396250010E-1
3.288375344E1,-4.537499845E-1,-1.294562459E0,-2.088624984E-1
3.290375344E1,-1.739374995E-1,-1.331137538E0,4.289999977E-2
3.292375344E1,-3.095124960E-1,-1.413087487E0,4.647500068E-2
3.294375344E1,-6.516125202E-1,-1.586475015E0,-1.588124931E-1
3.296375344E1,-9.411875010E-1,-1.505900025E0,-2.601499856E-1
3.298375345E1,-7.981874943E-1,-1.364137530E0,-2.259124964E-1
3.300375344E1,-4.305124879E-1,-1.266374946E0,-1.061500013E-1
3.302375345E1,-1.922249943E-1,-1.438662529E0,6.847500056E-2
3.304375344E1,-5.391374826E-1,-1.675712466E0,1.374999993E-4
3.306375344E1,-1.124337435E0,-1.642712474E0,-2.039124966E-1
3.308375344E1,-1.372387528E0,-1.323850036E0,-3.297249973E-1
3.310375344E1,-1.109762549E0,-1.017225027E0,-2.686749995E-1
3.312375345E1,-4.878500104E-1,-1.095324993E0,-1.581249945E-2
3.314375344E1,-5.541250110E-2,-1.315325022E0,1.870000064E-1
3.316375345E1,4.235000163E-2,-1.470425010E0,2.028124928E-1
3.318375344E1,-2.276999950E-1,-1.388612509E0,8.799999952E-2
3.320375345E1,-4.340874851E-1,-1.249325037E0,-2.337499987E-3
3.322375344E1,-5.220875144E-1,-1.177274942E0,-5.981250107E-2
3.324375344E1,-4.768500030E-1,-1.185799956E0,1.594999991E-2
3.326375344E1,-3.070375025E-1,-1.242037535E0,1.479499936E-1
3.328375344E1,-1.689874977E-1,-1.304324985E0,2.395250052E-1
3.330375345E1,-1.787499934E-1,-1.220037460E0,2.089999914E-1
3.332375344E1,-2.875125110E-1,-1.066037536E0,1.527625024E-1
3.334375345E1,-3.510375023E-1,-1.015987515E0,1.600500047E-1
3.336375344E1,-2.887499928E-1,-1.129562497E0,1.674750000E-1
3.338375344E1,-2.374625057E-1,-1.217562437E0,2.052875012E-1
3.340375344E1,-1.885125041E-1,-1.210274935E0,2.517625093E-1
3.342375344E1,-1.544124931E-1,-1.279850006E0,1.600500047E-1
3.344375344E1,-1.775124967E-1,-1.152799964E0,7.095000148E-2
3.346375344E1,-3.155624866E-1,-1.081987500E0,4.276249930E-2
3.348375345E1,-3.975124955E-1,-1.127087474E0,3.176249936E-2
3.350375344E1,-3.718000054E-1,-1.251799941E0,4.895000160E-2
3.352375345E1,-3.107500076E-1,-1.268849969E0,4.276249930E-2
3.354375344E1,-3.473249972E-1,-1.144274950E0,-2.337499987E-3
3.356375344E1,-4.328500032E-1,-1.134512544E0,-7.081250101E-2
3.358375344E1,-4.915624857E-1,-1.177274942E0,-6.710000336E-2
3.360375344E1,-5.086125135E-1,-1.227324963E0,-7.686249912E-2
3.362375345E1,-4.707999825E-1,-1.183325052E0,-8.057499677E-2
3.364375344E1,-2.850374877E-1,-9.132750034E-1,-2.681249939E-2
3.366375345E1,-1.592250019E-1,-7.899374962E-1,2.818750031E-2
3.368375344E1,-1.494625062E-1,-7.752249837E-1,6.228749827E-2
3.370375345E1,-1.762750000E-1,-7.851250172E-1,3.423750028E-2
3.372375344E1,-1.762750000E-1,-6.763625145E-1,-3.904999793E-2
3.374375344E1,-1.604624987E-1,-4.100250006E-1,-7.081250101E-2
3.376375344E1,-1.091749966E-1,-2.763750032E-2,-9.528750181E-2
3.378375344E1,-6.888750196E-2,2.252250016E-1,-9.528750181E-2
3.380375345E1,-3.464999795E-2,3.999874890E-1,-1.526249945E-1
3.382375344E1,-1.141249947E-2,6.028000116E-1,-1.930499971E-1
3.384375345E1,-1.649999991E-3,8.153749704E-1,-2.088624984E-1
3.386375344E1,4.839999974E-2,1.029187441E0,-1.905750036E-1
3.388375344E1,1.743499935E-1,1.159950018E0,-1.746249944E-1
3.390375344E1,2.866874933E-1,1.296762466E0,-8.910000324E-2
3.392375344E1,3.697375059E-1,1.398100019E0,-1.581249945E-2
3.394375344E1,4.650250077E-1,1.527624965E0,-1.237499993E-3
3.396375344E1,5.163124800E-1,1.712149978E0,-3.299999982E-2
3.398375345E1,4.967874885E-1,1.741437435E0,-9.528750181E-2
3.400375344E1,5.432624817E-1,1.811012506E0,-1.612875015E-1
3.402375345E1,5.897374749E-1,1.927199960E0,-9.886249900E-2
3.404375344E1,6.067875028E-1,1.919775009E0,-3.052499890E-2
3.406375344E1,6.043124795E-1,1.845250010E0,-5.128749833E-2
3.408375344E1,5.860249996E-1,1.855012536E0,-9.652499855E-2
3.410375344E1,5.787374973E-1,2.118875027E0,-1.318625063E-1
3.412375345E1,5.689749718E-1,2.296112537E0,-5.499999970E-2
3.414375344E1,5.725499988E-1,2.206875086E0,-1.704999991E-2
3.416375345E1,5.615500212E-1,2.208112478E0,-3.423750028E-2
3.418375344E1,4.540250003E-1,2.282637596E0,-3.533750027E-2
3.420375345E1,3.771624863E-1,2.342449903E0,-8.552499861E-2
3.422375344E1,3.929750025E-1,2.395112514E0,-8.552499861E-2
3.424375344E1,4.527874887E-1,2.480499983E0,-1.237499993E-3
3.426375344E1,4.589749873E-1,2.617449999E0,1.380500048E-1
3.428375344E1,7.033125162E-1,2.503737450E0,3.335750103E-1
3.430375345E1,9.085999727E-1,2.390162468E0,4.606249928E-1
3.432375344E1,9.256500006E-1,2.351112604E0,4.581499994E-1
3.434375345E1,8.694124818E-1,2.324162483E0,3.690499961E-1
3.436375344E1,8.658375144E-1,2.231349945E0,3.641000092E-1
3.438375344E1,8.621249795E-1,2.166587591E0,4.569124877E-1
3.440375344E1,8.474124670E-1,2.081062555E0,5.449125171E-1
3.442375344E1,9.171249866E-1,1.952775002E0,5.376250148E-1
3.444375344E1,9.439374804E-1,1.814725041E0,4.703874886E-1
3.446375344E1,8.450750113E-1,1.773200035E0,4.105750024E-1
3.448375345E1,6.763625145E-1,1.771962523E0,3.799124956E-1
3.450375344E1,4.162124991E-1,1.718199968E0,2.785750031E-1
3.452375345E1,4.222624898E-1,1.661962509E0,2.883374989E-1
3.454375344E1,6.507874727E-1,1.654675007E0,3.458124995E-1
3.456375344E1,7.253124714E-1,1.683962464E0,4.496249855E-1
3.458375344E1,6.556000113E-1,1.674199939E0,5.399624705E-1
3.460375344E1,4.919750094E-1,1.487337470E0,4.654375017E-1
3.462375345E1,3.697375059E-1,1.478812456E0,3.812874854E-1
3.464375344E1,3.367374837E-1,1.624150038E0,4.240500033E-1
3.466375345E1,4.064500034E-1,1.631437540E0,4.728625119E-1
3.468375344E1,5.798375010E-1,1.560624957E0,5.303375125E-1
3.470375345E1,5.615500212E-1,1.439625025E0,4.691500068E-1
3.472375344E1,4.284499884E-1,1.425050020E0,3.420999944E-1
3.474375344E1,3.757874966E-1,1.561862469E0,3.287625015E-1
3.476375344E1,3.770250082E-1,1.593624949E0,3.458124995E-1
3.478375344E1,3.990249932E-1,1.412812471E0,3.165250123E-1
3.480375345E1,5.335000157E-1,1.224575043E0,3.275249898E-1
3.482375344E1,6.213625073E-1,1.074424982E0,3.715249896E-1
3.484375345E1,6.030749679E-1,1.029187441E0,3.360500038E-1
3.486375344E1,5.017374754E-1,9.704750180E-1,1.454750001E-1
3.488375344E1,3.722124994E-1,1.053662539E0,2.089999914E-1
3.490375344E1,4.002625048E-1,9.986624718E-1,2.505249977E-1
3.492375344E1,5.505499840E-1,9.143750072E-1,3.470500112E-1
3.494375344E1,6.848874688E-1,8.739500046E-1,4.190999866E-1
3.496375344E1,6.665999889E-1,8.434249759E-1,4.142875075E-1
3.498375345E1,5.420249701E-1,8.324249983E-1,3.433375061E-1
3.500375344E1,3.649249971E-1,8.288499713E-1,2.517625093E-1
3.502375345E1,2.206874937E-1,8.874250054E-1,1.735250056E-1
3.504375344E1,1.901624948E-1,1.018187523E0,1.979999989E-1
3.506375344E1,2.854500115E-1,1.075662494E0,2.590500116E-1
3.508375344E1,4.100250006E-1,9.961875081E-1,2.785750031E-1
3.510375344E1,4.540250003E-1,8.214250207E-1,2.370499969E-1
3.512375345E1,3.917374909E-1,7.921375036E-1,1.870000064E-1
3.514375344E1,1.718750000E-1,1.001137495E0,9.542500228E-2
3.516375345E1,5.211250111E-2,1.166000009E0,8.799999952E-2
3.518375344E1,6.682500243E-2,1.257575035E0,1.577125043E-1
3.520375345E1,2.634499967E-1,1.192812443E0,2.602874935E-1
3.522375344E1,5.677375197E-1,9.559000134E-1,3.152875006E-1
3.524375344E1,8.010749817E-1,5.380374789E-1,2.542375028E-1
3.526375344E1,6.202625036E-1,3.926999867E-1,8.799999952E-2
3.528375344E1,2.158749998E-1,3.352249861E-1,-9.281250089E-2
3.530375345E1,-1.649999991E-3,3.339875042E-1,-9.638749808E-2
3.532375344E1,4.358749837E-2,8.717499673E-2,-3.904999793E-2
3.534375345E1,8.635000139E-2,-5.455999970E-1,-2.681249939E-2
3.536375344E1,-4.688749835E-2,-9.609875083E-1,-1.416250020E-1
3.538375344E1,-2.838000059E-1,-9.609875083E-1,-2.846249938E-1
3.540375344E1,-4.475624859E-1,-8.449375033E-1,-3.749625087E-1
3.542375344E1,-4.525125027E-1,-9.096999764E-1,-3.517250121E-1
3.544375344E1,-3.522749841E-1,-1.172325015E0,-2.771999836E-1
3.546375344E1,-1.104125008E-1,-1.510712504E0,-1.563374996E-1
3.548375345E1,5.637499969E-3,-1.570662498E0,-5.004999787E-2
3.550375344E1,-1.874125004E-1,-1.537662506E0,-3.409999982E-2
3.552375345E1,-6.478999853E-1,-1.687950015E0,-2.051499933E-1
3.554375344E1,-7.884249687E-1,-2.031150103E0,-3.701499999E-1
3.556375344E1,-4.170374870E-1,-2.376962423E0,-3.469125032E-1
3.558375344E1,-3.144625127E-1,-2.392775059E0,-3.334375024E-1
3.560375344E1,-7.151374817E-1,-2.222962379E0,-4.129124880E-1
3.562375345E1,-1.041287541E0,-2.116674900E0,-5.522000194E-1
3.564375344E1,-7.701374888E-1,-2.148437500E0,-4.972000122E-1
3.566375345E1,-4.866124988E-1,-2.191200018E0,-3.444375098E-1
3.568375344E1,-1.164762497E0,-2.163150072E0,-4.824874997E-1
3.570375345E1,-1.647249937E0,-2.304912567E0,-7.133499980E-1
3.572375344E1,-1.205049992E0,-2.463725090E0,-6.302999854E-1
3.574375344E1,-3.034625053E-1,-2.182674885E0,-2.443374991E-1
3.576375344E1,-3.375625014E-1,-1.895575047E0,1.405249983E-1
3.578375344E1,-1.064525008E0,-1.957862496E0,-4.386249930E-2
3.580375345E1,-1.333337545E0,-2.183912516E0,-3.236750066E-1
3.582375344E1,-8.421875238E-1,-2.174149990E0,-3.041499853E-1
3.584375345E1,-2.594625056E-1,-1.816237450E0,6.118749827E-2
3.586375344E1,-4.427500069E-1,-1.756287456E0,1.137124971E-1
3.588375344E1,-1.315050006E0,-1.955525041E0,-2.699125111E-1
3.590375344E1,-1.299100041E0,-2.020149946E0,-5.522000194E-1
3.592375344E1,-7.554249763E-1,-1.774712443E0,-4.349125028E-1
3.594375344E1,-3.595624864E-1,-1.516899943E0,-1.148125008E-1
3.596375344E1,-3.852750063E-1,-1.540137529E0,1.112374961E-1
3.598375345E1,-5.843750238E-1,-1.824762464E0,1.471249945E-2
3.600375344E1,-6.553249955E-1,-1.884575009E0,-2.198625058E-1
3.602375345E1,-7.211874723E-1,-1.544950008E0,-2.259124964E-1
3.604375344E1,-6.858500242E-1,-1.227324963E0,-1.416250020E-1
3.606375344E1,-5.953750014E-1,-1.322612524E0,-3.904999793E-2
3.608375344E1,-6.771875024E-1,-1.570662498E0,-4.386249930E-2
3.610375344E1,-5.673249960E-1,-1.456949949E0,9.899999946E-3
3.612375345E1,-3.388000131E-1,-1.296900034E0,1.247124970E-1
3.614375344E1,-2.582249939E-1,-1.279850006E0,1.942874938E-1
3.616375345E1,-3.437500000E-1,-1.382424951E0,1.588124931E-1
3.618375344E1,-5.513749719E-1,-1.476612449E0,4.166249931E-2
3.620375345E1,-8.262374997E-1,-1.515662551E0,-1.183874980E-1
3.622375344E1,-8.812375069E-1,-1.521712542E0,-1.588124931E-1
3.624375344E1,-9.509499669E-1,-1.525424957E0,-1.856250018E-1
3.626375344E1,-1.058475018E0,-1.515662551E0,-2.711499929E-1
3.628375344E1,-1.054762483E0,-1.507137537E0,-2.943874896E-1
3.630375345E1,-7.396125197E-1,-1.554712534E0,-1.673374921E-1
3.632375344E1,-4.353249967E-1,-1.703762531E0,-1.828750037E-2
3.634375345E1,-5.208500028E-1,-1.763712525E0,-2.433750033E-2
3.636375344E1,-7.811374664E-1,-1.685474992E0,-1.526249945E-1
3.638375344E1,-8.751875162E-1,-1.498612523E0,-2.051499933E-1
3.640375344E1,-6.308500171E-1,-1.336087465E0,-9.528750181E-2
3.642375344E1,-3.132250011E-1,-1.382424951E0,6.723749638E-2
3.644375345E1,-1.067000031E-1,-1.442374945E0,1.907124966E-1
3.646375344E1,-1.746249944E-2,-1.563237548E0,2.945249975E-1
3.648375345E1,-6.641250104E-2,-1.648762465E0,1.918125004E-1
3.650375344E1,-3.327499926E-1,-1.477712512E0,2.199999988E-2
3.652375345E1,-5.758500099E-1,-1.255375028E0,-9.157499671E-2
3.654375344E1,-5.709000230E-1,-1.106325030E0,-5.486249924E-2
3.656375344E1,-3.595624864E-1,-1.088037491E0,5.142499879E-2
3.658375344E1,-1.751749963E-1,-1.141800046E0,1.527625024E-1
3.660375344E1,-1.324124932E-1,-1.161324978E0,1.930499971E-1
3.662375345E1,-2.447499931E-1,-1.092987537E0,1.099999994E-1
3.664375344E1,-4.328500032E-1,-9.537000060E-1,1.223750040E-2
3.666375345E1,-6.271374822E-1,-9.451749921E-1,-6.957499683E-2
3.668375344E1,-7.199500203E-1,-1.036749959E0,-1.660999954E-1
3.670375345E1,-7.188500166E-1,-1.123512506E0,-1.916749924E-1
3.672375344E1,-5.575624704E-1,-1.146749973E0,-1.391499937E-1
3.674375344E1,-3.865124881E-1,-1.090512514E0,-8.538749814E-2
3.676375344E1,-2.081750035E-1,-1.035512447E0,-1.704999991E-2
3.678375344E1,-5.417500064E-2,-9.890375137E-1,-5.252499878E-2
3.680375345E1,-1.017499994E-2,-8.571749926E-1,-1.171500012E-1
3.682375344E1,-3.464999795E-2,-6.006000042E-1,-1.355749965E-1
3.684375345E1,-7.012499869E-2,-3.355000019E-1,-1.611499935E-1
3.686375344E1,-1.764124930E-1,-3.162499983E-3,-2.784374952E-1
3.688375344E1,-2.557500005E-1,3.779875040E-1,-3.321999907E-1
3.690375344E1,-2.655124962E-1,7.543249726E-1,-3.444375098E-1
3.692375344E1,-1.287000030E-1,1.052425027E0,-2.894375026E-1
3.694375345E1,7.535000145E-2,1.360287547E0,-1.880999953E-1
3.696375344E1,1.071124971E-1,1.522675037E0,-1.061500013E-1
3.698375345E1,1.424500048E-1,1.655912519E0,-2.076249942E-2
3.700375344E1,2.719750106E-1,1.735387444E0,8.071249723E-2
3.702375345E1,4.295499921E-1,1.813487530E0,1.197625026E-1
3.704375344E1,5.395500064E-1,1.922250032E0,8.923749626E-2
3.706375344E1,6.067875028E-1,2.082299948E0,1.002374962E-1
3.708375344E1,6.006000042E-1,2.176349878E0,1.319999993E-1
3.710375344E1,4.870249927E-1,2.247162580E0,1.612875015E-1
3.712375345E1,4.186874926E-1,2.335162401E0,1.882375032E-1
3.714375344E1,4.980250001E-1,2.319350004E0,2.272875011E-1
3.716375345E1,5.810750127E-1,2.381637573E0,2.540999949E-1
3.718375344E1,6.287875175E-1,2.496449947E0,2.578125000E-1
3.720375345E1,6.373124719E-1,2.581974983E0,2.590500116E-1
3.722375344E1,6.165499687E-1,2.589262486E0,2.028124928E-1
3.724375344E1,6.410250068E-1,2.588025093E0,2.089999914E-1
3.726375344E1,6.653624773E-1,2.610024929E0,2.590500116E-1
3.728375344E1,7.545999885E-1,2.629549980E0,3.763374984E-1
3.730375345E1,9.928874969E-1,2.553925037E0,5.106750131E-1
3.732375344E1,1.249462485E0,2.359637499E0,6.047250032E-1
3.734375345E1,1.284800053E0,2.202062607E0,5.889124870E-1
3.736375344E1,1.149224997E0,2.184875011E0,5.021499991E-1
3.738375344E1,1.017225027E0,2.217875004E0,3.910500109E-1
3.740375344E1,8.266500235E-1,2.186112404E0,2.590500116E-1
3.742375344E1,7.606499791E-1,2.143349886E0,2.358125001E-1
3.744375345E1,8.438374996E-1,2.088350058E0,2.895750105E-1
3.746375344E1,9.085999727E-1,2.007775068E0,3.506250083E-1
3.748375345E1,7.253124714E-1,1.796437502E0,2.528625131E-1
3.750375344E1,4.809750021E-1,1.685199976E0,1.430000067E-1
3.752375345E1,4.577375054E-1,1.654675007E0,1.357125044E-1
3.754375344E1,5.370749831E-1,1.671862483E0,1.870000064E-1
3.756375344E1,5.908374786E-1,1.564337492E0,2.920500040E-1
3.758375344E1,6.226000190E-1,1.412812471E0,3.018124998E-1
3.760375344E1,7.081249952E-1,1.344337463E0,3.091000021E-1
3.762375345E1,7.020750046E-1,1.293050051E0,2.540999949E-1
3.764375344E1,5.432624817E-1,1.387099981E0,2.505249977E-1
3.766375345E1,4.662624896E-1,1.403049946E0,2.602874935E-1
3.768375344E1,4.712125063E-1,1.324812531E0,2.345750034E-1
3.770375345E1,6.250749826E-1,1.260049939E0,2.712875009E-1
3.772375344E1,7.790749669E-1,1.168475032E0,3.507624865E-1
3.774375344E1,8.181250095E-1,1.170949936E0,3.616249859E-1
3.776375344E1,7.411249876E-1,1.235574961E0,3.250499964E-1
3.778375344E1,6.531249881E-1,1.272287488E0,2.187625021E-1
3.780375345E1,5.823125243E-1,1.305287480E0,1.307625026E-1
3.782375344E1,4.833124876E-1,1.269812465E0,7.823749632E-2
3.784375345E1,4.052124918E-1,1.186762452E0,5.266249925E-2
3.786375344E1,5.590749979E-1,1.250287533E0,2.272875011E-1
3.788375344E1,7.386500239E-1,9.924749732E-1,2.162874937E-1
3.790375344E1,6.055499911E-1,9.497125149E-1,1.674750000E-1
3.792375344E1,4.870249927E-1,1.062187552E0,1.674750000E-1
3.794375345E1,4.430249929E-1,1.044999957E0,4.895000160E-2
3.796375344E1,3.196874857E-1,1.059712529E0,-1.333750039E-2
3.798375345E1,3.244999945E-1,1.097525001E0,3.066249937E-2
3.800375344E1,4.124999940E-1,1.067000031E0,7.823749632E-2
3.802375345E1,4.760249853E-1,1.030424953E0,1.539999992E-1
3.804375344E1,5.493124723E-1,1.080474973E0,2.407625020E-1
3.806375344E1,5.139750242E-1,1.047474980E0,2.835249901E-1
3.808375344E1,4.833124876E-1,9.791374803E-1,2.712875009E-1
3.810375344E1,4.699749947E-1,8.716124892E-1,1.649999917E-1
3.812375345E1,4.320249856E-1,8.190875053E-1,1.161874980E-1
3.814375344E1,3.612124920E-1,8.336625099E-1,8.195000142E-2
3.816375345E1,3.294500113E-1,8.764249682E-1,6.476250291E-2
3.818375344E1,2.976875007E-1,9.277125001E-1,5.018749833E-2
3.820375345E1,1.694000065E-1,8.104249835E-1,2.474999987E-3
3.822375344E1,1.131625026E-1,6.846125126E-1,-4.812499974E-3
3.824375344E1,1.021625027E-1,6.895624995E-1,4.949999973E-3
3.826375344E1,4.716249928E-2,7.885624766E-1,8.662499487E-3
3.828375344E1,-1.993750036E-2,8.826124668E-1,3.299999982E-2
3.830375345E1,-4.564999789E-2,9.143750072E-1,7.699999958E-2
3.832375344E1,-1.649999991E-3,9.204249978E-1,1.160499975E-1
3.834375345E1,1.644500047E-1,7.799000144E-1,1.577125043E-1
3.836375344E1,4.112625122E-1,5.380374789E-1,2.540999949E-1
3.838375344E1,6.080250144E-1,4.207499921E-1,3.995749950E-1
3.840375344E1,6.886000037E-1,4.292750061E-1,5.388625264E-1
3.842375344E1,6.177874804E-1,5.343250036E-1,6.304374933E-1
3.844375345E1,3.539249897E-1,6.540874839E-1,4.679124951E-1
3.846375344E1,8.263749629E-2,6.908000112E-1,2.052875012E-1
3.848375345E1,-3.712499887E-2,5.099874735E-1,4.152499884E-2
3.850375344E1,-6.462499965E-3,1.616999954E-1,6.187499966E-3
3.852375345E1,3.506249934E-2,-3.953124881E-1,1.594999991E-2
3.854375344E1,-8.098749816E-2,-6.848874688E-1,-1.237499993E-3
3.856375344E1,-3.070375025E-1,-8.339374661E-1,-9.886249900E-2
3.858375344E1,-5.000874996E-1,-8.094624877E-1,-1.685750037E-1
3.860375344E1,-4.230875075E-1,-8.278874755E-1,-1.270499974E-1
3.862375345E1,-2.080374956E-1,-1.117324948E0,-6.957499683E-2
3.864375344E1,-1.067000031E-1,-1.278612494E0,6.187499966E-3
3.866375345E1,-1.897500008E-1,-1.369087458E0,3.712499980E-3
3.868375344E1,-3.877499998E-1,-1.496137500E0,-3.533750027E-2
3.870375345E1,-4.842749834E-1,-1.541237473E0,-6.833750010E-2
3.872375344E1,-4.512749910E-1,-1.493662477E0,-9.776250273E-2
3.874375344E1,-7.028999925E-1,-1.383662462E0,-1.575749964E-1
3.876375344E1,-9.204249978E-1,-1.445950031E0,-2.406249940E-1
3.878375344E1,-7.994250059E-1,-1.659762502E0,-3.518624902E-1
3.880375345E1,-4.988499880E-1,-1.866287470E0,-4.031499922E-1
3.882375344E1,-4.072749913E-1,-1.783237457E0,-4.104374945E-1
3.884375345E1,-7.286124825E-1,-1.292087436E0,-3.774375021E-1
3.886375344E1,-8.874250054E-1,-1.150324941E0,-3.811500072E-1
3.888375344E1,-7.688999772E-1,-1.519374967E0,-5.069624782E-1
3.890375344E1,-5.478000045E-1,-1.768525004E0,-4.837250113E-1
3.892375344E1,-5.013250113E-1,-1.684237480E0,-4.043875039E-1
3.894375345E1,-4.536125064E-1,-1.176037550E0,-1.185249984E-1
3.896375344E1,-4.585624933E-1,-1.317662477E0,-2.681249939E-2
3.898375345E1,-6.003249884E-1,-1.722049952E0,-1.978625059E-1
3.900375344E1,-6.113250256E-1,-1.855287433E0,-3.286249936E-1
3.902375345E1,-4.402749836E-1,-1.577950001E0,-2.393874973E-1
3.904375344E1,-3.352249861E-1,-1.183325052E0,-2.433750033E-2
3.906375344E1,-5.721374750E-1,-1.293324947E0,-9.762499481E-3
3.908375344E1,-6.331874728E-1,-1.647524953E0,-1.563374996E-1
3.910375344E1,-4.573250115E-1,-1.662237525E0,-2.161500007E-1
3.912375345E1,-3.950375021E-1,-1.347087502E0,-1.368124932E-1
3.914375344E1,-6.283749938E-1,-1.096562505E0,-7.204999775E-2
3.916375345E1,-8.592374921E-1,-1.356850028E0,-1.000999957E-1
3.918375344E1,-5.795624852E-1,-1.718474984E0,-1.428624988E-1
3.920375345E1,-5.148000121E-1,-1.739237547E0,-1.831499934E-1
3.922375344E1,-8.556625247E-1,-1.421612501E0,-2.051499933E-1
3.924375344E1,-9.484750032E-1,-1.224849939E0,-1.588124931E-1
3.926375344E1,-4.976125062E-1,-1.689187527E0,-6.104999781E-2
3.928375344E1,-4.573250115E-1,-2.004337549E0,-6.352499872E-2
3.930375345E1,-7.737125158E-1,-1.807574987E0,-1.355749965E-1
3.932375344E1,-1.071812510E0,-1.279850006E0,-1.526249945E-1
3.934375345E1,-8.129000068E-1,-1.206562519E0,-7.328750193E-2
3.936375344E1,-3.693250120E-1,-1.620712519E0,1.099999994E-2
3.938375344E1,-4.035624862E-1,-1.698949933E0,8.428750187E-2
3.940375344E1,-5.941374898E-1,-1.419137478E0,6.228749827E-2
3.942375344E1,-4.598000050E-1,-1.204087496E0,1.467124969E-1
3.944375345E1,-2.252250016E-1,-1.285899997E0,2.761000097E-1
3.946375344E1,-3.155624866E-1,-1.508375049E0,2.212374955E-1
3.948375345E1,-6.466624737E-1,-1.516899943E0,-1.099999994E-2
3.950375344E1,-5.928999782E-1,-1.224849939E0,1.594999991E-2
3.952375345E1,-3.987500072E-1,-1.099037528E0,1.197625026E-1
3.954375344E1,-3.987500072E-1,-1.187037468E0,1.222374961E-1
3.956375344E1,-4.951374829E-1,-1.248087525E0,7.947500050E-2
3.958375344E1,-5.538499951E-1,-1.174800038E0,3.299999982E-2
3.960375344E1,-6.503750086E-1,-1.110037446E0,-2.557500079E-2
3.962375345E1,-7.517125010E-1,-1.061224937E0,-1.380500048E-1
3.964375344E1,-8.042374849E-1,-1.103987455E0,-2.003374994E-1
3.966375345E1,-8.702374697E-1,-1.163800001E0,-2.088624984E-1
3.968375344E1,-7.786625028E-1,-1.361662507E0,-1.820500046E-1
3.970375345E1,-6.406124830E-1,-1.443612456E0,-1.918125004E-1
3.972375344E1,-6.784250140E-1,-1.400849938E0,-2.138125002E-1
3.974375344E1,-8.654249907E-1,-1.306800008E0,-2.173874974E-1
3.976375344E1,-8.727124929E-1,-1.257850051E0,-2.063875049E-1
3.978375344E1,-7.114250064E-1,-1.213850021E0,-1.808124930E-1
3.980375345E1,-6.234250069E-1,-1.179612517E0,-1.148125008E-1
3.982375344E1,-6.881874800E-1,-1.222375035E0,-1.050499976E-1
3.984375345E1,-6.148999929E-1,-1.289612532E0,-9.899999946E-2
3.986375344E1,-5.098500252E-1,-1.403187513E0,-8.304999769E-2
3.988375344E1,-4.463250041E-1,-1.389850020E0,-1.952499896E-2
3.990375344E1,-4.487999976E-1,-1.478950024E0,-9.528750181E-2
3.992375344E1,-3.913249969E-1,-1.533949971E0,-1.025749967E-1
3.994375345E1,-4.731374979E-1,-1.560899973E0,-9.899999946E-2
3.996375344E1,-4.743750095E-1,-1.555950046E0,-5.733750015E-2
3.998375345E1,-3.790875077E-1,-1.582900047E0,-1.223750040E-2
4.000375344E1,-2.667500079E-1,-1.530237436E0,-3.781250119E-2
4.002375345E1,-2.912249863E-1,-1.406900048E0,-8.181250095E-2
4.004375344E1,-3.815625012E-1,-1.318899989E0,-1.233374998E-1
4.006375344E1,-4.536125064E-1,-1.260324955E0,-1.220999956E-1
4.008375344E1,-4.793249965E-1,-1.226087451E0,-1.185249984E-1
4.010375344E1,-4.573250115E-1,-1.187037468E0,-6.833750010E-2
4.012375345E1,-3.547500074E-1,-1.191849947E0,6.476250291E-2
4.014375344E1,-2.459875047E-1,-1.124750018E0,1.357125044E-1
